LineNo,abTimeUS,abI,abGyrX,abGyrY,abGyrZ,abAccX,abAccY,abAccZ,abEG,abEA,abT,abGH,abAH,abGHz,abAHz,labels
14707,47623443,0,0.00065198,0.00069927,0.00066403,-0.0016249,-0.00052873,-9.817689,0,0,27.83643,1,1,1000,1000,0
294758,359383689,0,3.323413,-5.883018,-6.913023,0.5287579,-1.198488,-6.869982,0,0,38.9286,1,1,999,999,3
288150,352023301,0,4.78349,-6.518798,-28.44628,-0.08033256,-0.05414242,-8.466424,0,0,38.77781,1,1,999,999,3
265078,326383561,0,1.152616,-2.402375,-0.1175818,-0.3285731,0.03687011,-10.05832,0,0,38.22263,1,1,999,999,0
105572,148903748,0,1.405822,-2.136524,0.03320768,-5.092781,-0.06426545,-8.41171,0,0,32.75413,1,1,1000,1000,1
337042,406384048,0,2.900586,-0.8078605,0.1057444,-4.811216,0.00449875,-8.781097,0,0,39.80902,1,1,1000,1000,0
78073,117983621,0,-1.604258,1.890221,0.3322521,-0.5803494,0.0002201,-10.21653,0,0,31.42465,1,1,1000,1000,1
8795,24183656,0,0.00027658,0.00029987,0.00033378,-0.00106714,-0.00127743,-9.816331,0,0,26.4416,1,1,999,999,0
147682,195903274,0,-2.509628,-0.9162223,0.05263082,-4.793435,-0.1022027,-8.323733,0,0,34.52991,1,1,1000,1000,0
299582,364784028,0,0.00345874,0.00339795,-0.00419748,0.03682521,-0.01011898,-9.817811,0,0,39.03691,1,1,999,999,3
359666,431543980,0,2.235902,1.173379,0.07861765,-1.342689,0.02804528,-9.815422,0,0,40.22662,1,1,1000,1000,0
429726,509743521,0,0.00119746,0.00138108,0.00133023,-0.00152051,-0.0010512,-9.816812,0,0,41.32193,1,1,999,999,4
263533,324663416,0,-2.292492,0.6661175,0.04931458,-0.434291,-0.03067941,-9.809277,0,0,38.18366,1,1,999,999,0
133102,179703923,0,-0.6908203,-2.63633,0.03811637,-4.806728,0.04114096,-8.381063,0,0,33.94899,1,1,999,999,0
404295,481103315,0,-2.176195,0.3319326,0.03698797,-0.04496014,-0.02010468,-9.840961,0,0,40.95349,1,1,1000,1000,4
161921,211743602,0,-0.2095741,-2.749242,-0.1372057,-0.3310932,0.02045266,-9.749883,0,0,35.06839,1,1,1000,1000,0
394598,470343454,0,1.890967,-1.535657,0.04854424,0.01526582,-0.02826611,-9.831034,0,0,40.80572,1,1,999,999,4
345444,415743636,0,-2.453661,-0.9767109,0.2342952,-0.3270321,-0.06201089,-10.31941,0,0,39.96848,1,1,999,999,0
293083,357503608,0,0.00485513,-0.07674144,-0.00532375,0.1983211,-2.044458,-8.130572,0,0,38.89043,1,1,999,999,3
10257,26023753,0,0.00036349,0.0003542,0.00039778,-0.00185158,-0.00029528,-9.817902,0,0,26.55508,1,1,999,999,0
373317,446663763,0,-0.9806749,-2.280039,0.03703909,-0.2447407,-0.5731903,-10.05507,0,0,40.46123,1,1,1000,1000,4
296187,360983882,0,0.00342405,0.00341563,-0.00287835,0.01623904,0.01569483,-9.825611,0,0,38.9609,1,1,1000,1000,3
172963,223983704,0,2.345948,0.14481,-0.6373254,-1.690662,0.1037671,-9.864856,0,0,35.46545,1,1,999,999,0
125898,171703791,0,-0.4278468,-2.699523,0.1492549,-2.292444,0.4159136,-9.64106,0,0,33.65033,1,1,1000,1000,0
164697,214824036,0,-1.89848,-1.452287,-0.1786827,-0.7185394,-0.0326601,-9.838511,0,0,35.16984,1,1,999,999,0
196611,250264021,0,2.216412,-1.610118,-0.04615473,1.000002,1.000001,1.000002,0,0,36.26514,1,1,1000,1000,2
286687,350383957,0,3.286005,-3.590502,-1.855291,-0.1663652,-0.02286171,-5.943768,0,0,38.7437,1,1,999,999,3
132941,179543987,0,2.194834,1.692305,0.04121881,-4.991308,0.01866746,-8.663632,0,0,33.94309,1,1,999,999,0
26393,60584090,0,0.05733452,-1.988663,0.03246483,-0.05131685,0.00736315,-9.175395,0,0,28.56211,1,1,1000,1000,0
190164,243103553,0,0.08680955,2.549069,-0.3799633,1.000002,1.000001,1.000002,0,0,36.05416,1,1,1000,1000,2
378821,452783814,0,-2.674091,-0.03915681,0.04973368,-1.585771,-4.082142,-8.944255,0,0,40.55289,1,1,999,999,4
340745,410504066,0,-1.411822,-2.312602,0.04543323,-3.293983,-0.01857891,-8.427624,0,0,39.87982,1,1,999,999,0
408996,486343718,0,-1.347743,1.920501,0.05147879,0.0329714,0.02141055,-9.813384,0,0,41.02355,1,1,1000,1000,4
399894,476223601,0,0.02928945,2.369785,0.03887814,-0.00441098,0.05035701,-9.804292,0,0,40.88713,1,1,1000,1000,4
292821,357223720,0,0.02358944,-1.332699,-0.01350717,1.790886,5.123458,-15.30031,0,0,38.88473,1,1,999,999,3
4905,19343926,0,0.00031542,0.00019539,0.00020381,-0.00025319,-0.00153506,-9.816398,0,0,26.13977,1,1,999,999,0
56608,94143994,0,-1.789865,-1.162522,0.1692227,-1.496068,-0.01507108,-9.73626,0,0,30.30184,1,1,1000,1000,0
188986,241784081,0,3.312592,-0.08011934,0.1018414,1.000002,1.000001,1.000002,0,0,36.01471,1,1,999,999,2
175863,227224074,0,-1.132275,2.181986,0.1213629,-0.5476013,-0.05388626,-10.27178,0,0,35.56787,1,1,999,999,0
12425,28743498,0,0.00040568,0.00040426,0.00044379,-0.00101326,-0.00152143,-9.817997,0,0,26.72156,1,1,1000,1000,0
26772,61023914,0,0.914343,1.966429,0.03206585,0.02747105,-0.01772329,-9.370064,0,0,28.5862,1,1,1000,1000,0
49376,86103878,0,-1.972092,1.199624,0.04969073,-0.5748382,0.02362606,-9.860671,0,0,29.90261,1,1,1000,1000,0
286164,349823348,0,-2.303008,0.679711,0.04870682,-0.331149,-0.02288223,-9.86488,0,0,38.73201,1,1,999,999,0
319307,386703590,0,0.00304374,0.00310198,-0.01711221,0.01599884,-0.01024117,-9.816757,0,0,39.45708,1,1,1000,1000,3
224866,281703940,0,-1.736591,-1.657263,-0.1102249,1.000002,1.000001,1.000002,0,0,37.13422,1,1,999,999,2
129139,175304017,0,-0.8249614,-2.558753,0.1085555,-4.542213,-0.01707787,-8.393156,0,0,33.78571,1,1,1000,1000,0
350288,421103991,0,-1.341548,-1.613304,0.08913548,-1.256121,-0.06197862,-9.755057,0,0,40.05758,1,1,1000,1000,0
310383,376783393,0,0.00320336,0.00324781,-0.01301676,-0.0301115,0.01221732,-9.817904,0,0,39.27073,1,1,1000,1000,3
107074,150583909,0,-1.312642,-2.256072,0.02730745,-4.805772,-0.157861,-8.272818,0,0,32.82251,1,1,1000,1000,1
238605,296983659,0,1.718945,-1.77868,0.8075158,1.000002,1.000001,1.000002,0,0,37.52481,1,1,999,999,2
433755,514823988,0,0.00117074,0.00112308,0.00119791,-0.00117753,-0.00095631,-9.818027,0,0,41.38369,1,1,999,999,4
220631,276983329,0,0.342636,-3.090161,-0.3796063,1.000002,1.000001,1.000002,0,0,37.00948,1,1,999,999,2
12979,29424059,0,0.00036103,0.00039355,0.00045605,-0.00143538,-0.00051976,-9.817802,0,0,26.76294,1,1,999,999,0
256190,316543332,0,-2.464855,0.1397354,0.2186509,-0.4249059,-0.00755677,-10.10189,0,0,37.99665,1,1,999,999,0
28136,62543306,0,-0.8742269,2.197168,0.03771277,-0.03509925,0.00584402,-9.831907,0,0,28.66916,1,1,1000,1000,0
30996,65703708,0,0.9046017,-2.118657,0.04239336,0.01230984,0.03987398,-9.842285,0,0,28.84027,1,1,1000,1000,0
37040,72423519,0,1.452266,-1.912186,0.0500336,0.04088059,0.02903524,-9.773072,0,0,29.19823,1,1,1000,1000,0
166239,216543348,0,0.2529907,-2.285797,0.01364935,-0.1221216,0.03078701,-9.475568,0,0,35.22604,1,1,1000,1000,0
183512,235704014,0,-1.1765,-2.435755,0.03421973,1.000002,1.000001,1.000002,0,0,35.83075,1,1,1000,1000,0
234589,292543769,0,-2.872837,-0.4470859,-0.09071694,1.000002,1.000001,1.000002,0,0,37.41336,1,1,999,999,2
372618,445904067,0,2.499151,0.0707888,0.04785977,-0.0933181,-0.2346917,-9.855608,0,0,40.44972,1,1,999,999,0
226842,283903893,0,3.005938,-0.9529815,0.5972942,1.000002,1.000001,1.000002,0,0,37.19169,1,1,1000,1000,2
361428,433464045,0,-2.230279,0.8575542,0.06411967,-0.395982,0.01075093,-9.849148,0,0,40.25707,1,1,1000,1000,0
12478,28783482,0,0.00035055,0.00035689,0.00041672,-0.00194524,-0.00069033,-9.817195,0,0,26.724,1,1,999,999,0
109408,153223686,0,2.565801,0.1946492,0.01395673,-4.899757,-0.1268484,-8.692162,0,0,32.92921,1,1,1000,1000,1
109922,153783462,0,-1.633911,-2.032795,0.02098355,-4.670978,-0.1645886,-8.372295,0,0,32.95172,1,1,1000,1000,1
15873,48943748,0,0.0007169,0.00068805,0.00065899,-0.00197772,-0.00149965,-9.817525,0,0,27.91179,1,1,1000,1000,0
107506,151063717,0,-2.299804,1.147885,0.04529959,-4.752115,-0.1976535,-8.517857,0,0,32.84198,1,1,1000,1000,1
134541,181303283,0,-1.142104,-2.269822,0.04834643,-4.804814,-0.04793457,-8.315039,0,0,34.00777,1,1,1000,1000,0
121230,166503372,0,1.017733,-2.466907,0.05781791,-4.771632,-0.2656192,-8.466221,0,0,33.45189,1,1,1000,1000,1
223583,280263683,0,2.211053,0.656918,0.06294991,1.000002,1.000001,1.000002,0,0,37.09637,1,1,1000,1000,2
389280,464423323,0,1.843704,1.797529,0.04284691,-1.849592,-4.212692,-8.771068,0,0,40.72213,1,1,999,999,4
438494,520583350,0,0.00115283,0.00111943,0.00113619,-0.00042364,-0.00129338,-9.818162,0,0,41.45246,1,1,999,999,4
370999,444103954,0,1.14564,-2.040774,0.04394174,0.01489911,0.07045967,-9.784557,0,0,40.42234,1,1,999,999,0
329553,398064044,0,-3.384738,-0.4880267,-0.356594,0.02983506,-0.00910596,-13.71807,0,0,39.66304,1,1,1000,1000,3
347148,417623717,0,-2.367823,-0.2375157,0.04077865,-1.208552,-0.01945512,-9.79837,0,0,39.99991,1,1,999,999,0
42425,78383634,0,-1.081129,2.05563,0.00849057,-0.6341859,0.02080404,-10.3095,0,0,29.50906,1,1,1000,1000,0
53860,91063560,0,1.362933,-1.995941,0.03140263,-0.54613,-0.03814555,-9.933908,0,0,30.15016,1,1,1000,1000,0
191258,244343890,0,-0.880738,-1.959415,0.06572994,1.000002,1.000001,1.000002,0,0,36.09106,1,1,999,999,2
419220,497663355,0,-1.959122,-1.263014,0.02794789,-0.00150274,-0.00278568,-9.788418,0,0,41.1708,1,1,999,999,4
69950,108943905,0,-0.2186855,2.920404,0.06390029,-1.43625,-0.05187603,-9.835058,0,0,31.00935,1,1,1000,1000,1
226279,283263316,0,-2.510031,2.461298,0.2234352,1.000002,1.000001,1.000002,0,0,37.17501,1,1,1000,1000,2
291493,355743479,0,2.483709,0.5961406,-0.1043998,0.289764,-2.168197,-7.059494,0,0,38.85449,1,1,999,999,3
153956,202863822,0,1.732072,2.015252,-0.1109668,-4.882502,-0.1441899,-8.735874,0,0,34.77002,1,1,1000,1000,0
55768,93183545,0,2.570042,-0.06884706,-0.2731121,-0.5325557,0.03860725,-10.18607,0,0,30.25473,1,1,1000,1000,0
360728,432703516,0,0.3005176,-2.285883,0.03587693,-0.6339588,0.00767016,-9.8693,0,0,40.24504,1,1,999,999,0
329476,397984076,0,-0.09691856,0.01268979,-0.00943306,0.01901085,-0.00184754,-10.79718,0,0,39.66162,1,1,1000,1000,3
353610,424783352,0,0.8028247,-2.912365,0.1941777,-0.143867,0.00280374,-10.09763,0,0,40.11784,1,1,999,999,0
115458,160023465,0,2.574345,0.5092221,0.04156503,-4.736614,-0.3270274,-8.838581,0,0,33.19973,1,1,1000,1000,1
286083,349743380,0,-1.397482,-1.933225,0.03155638,-0.3233728,-0.02383711,-9.810241,0,0,38.73034,1,1,999,999,0
245465,304623935,0,1.053196,2.121735,0.05707938,1.000002,1.000001,1.000002,0,0,37.71278,1,1,999,999,0
380520,454663895,0,-2.663833,-0.108416,0.05152434,-1.63378,-4.187127,-8.898358,0,0,40.58067,1,1,999,999,4
81276,121583847,0,-0.8769478,0.762761,0.04083527,-0.3615428,-0.00238311,-9.771927,0,0,31.58658,1,1,1000,1000,1
125817,171623823,0,2.176847,-1.499685,0.3296179,-2.34888,0.4458487,-9.69783,0,0,33.6473,1,1,1000,1000,0
72357,111583682,0,-2.220172,-0.7520064,0.03708263,-0.3355571,-0.0077941,-9.81843,0,0,31.13193,1,1,1000,1000,1
6577,21423927,0,0.00028038,0.00025549,0.00028278,-0.00135814,-0.00053668,-9.817061,0,0,26.27008,1,1,999,999,0
345985,416343396,0,-2.183651,-1.431845,0.1489377,-0.9222832,-0.01694557,-10.23006,0,0,39.97853,1,1,1000,1000,0
353069,424183592,0,-0.00215558,-2.397707,0.03473157,-0.1409809,-0.00945657,-9.816232,0,0,40.10806,1,1,999,999,0
374759,448263956,0,1.285445,-2.399079,0.06394445,-0.7835442,-1.845363,-9.724253,0,0,40.48537,1,1,1000,1000,4
104328,147503475,0,1.622387,-2.188116,0.1439434,-5.15801,-0.09160601,-8.405576,0,0,32.69685,1,1,1000,1000,1
240429,299023676,0,-2.60642,0.3712082,1.157218,1.000002,1.000001,1.000002,0,0,37.57547,1,1,999,999,2
120775,165983580,0,-2.344087,-1.363275,0.04547656,-4.647493,-0.299621,-8.327004,0,0,33.43185,1,1,1000,1000,1
112134,156263303,0,-2.394392,0.9808421,0.05795713,-4.594172,-0.2629362,-8.655128,0,0,33.0509,1,1,1000,1000,1
251286,311063858,0,1.069818,1.39044,0.05203664,-0.1002097,0.04988106,-9.404034,0,0,37.86755,1,1,999,999,0
343985,414103459,0,2.33669,-0.3000156,0.03806668,-0.7472377,0.00404761,-9.878433,0,0,39.9409,1,1,999,999,0
109822,153663510,0,-2.38143,1.127952,0.02725979,-4.704945,-0.2323533,-8.617837,0,0,32.9469,1,1,1000,1000,1
402416,479023314,0,-2.332287,0.2235099,0.04419659,0.01315349,-0.04784873,-9.964232,0,0,40.92533,1,1,1000,1000,4
300044,365303820,0,0.00339838,0.00339052,-0.00451118,-0.0010259,0.03523328,-9.818533,0,0,39.04724,1,1,999,999,3
57672,95303530,0,1.314519,2.097255,-0.02648322,-1.06849,0.02449708,-9.926653,0,0,30.35856,1,1,1000,1000,0
205439,260103417,0,-1.709226,3.098621,0.2917485,1.000002,1.000001,1.000002,0,0,36.54699,1,1,1000,1000,2
25066,59143833,0,-2.066184,0.9207063,0.04379479,-0.04879327,-0.00966999,-8.901272,0,0,28.48302,1,1,1000,1000,0
135724,182623588,0,1.514336,-2.251561,0.01904122,-4.886552,-0.01115712,-8.509912,0,0,34.05603,1,1,999,999,0
116523,161223818,0,2.596557,0.5832652,0.05130777,-4.807529,-0.2831194,-8.771442,0,0,33.24684,1,1,1000,1000,1
61795,99863372,0,-1.203077,-1.950387,0.04247913,-1.198369,-0.03650712,-9.862284,0,0,30.57943,1,1,1000,1000,0
10471,26263657,0,0.00033556,0.00040481,0.00038799,-0.00127407,-3.07E-05,-9.817192,0,0,26.56983,1,1,999,999,0
296010,360783962,0,0.0034868,0.00338264,-0.00308055,-0.01787179,-0.06469008,-9.761785,0,0,38.95687,1,1,999,999,3
84935,125703865,0,-2.622436,-0.6065826,0.06374818,-4.237676,-0.06506316,-8.557805,0,0,31.76953,1,1,1000,1000,1
192654,245863282,0,0.9820473,-1.779489,0.6740862,1.000002,1.000001,1.000002,0,0,36.13608,1,1,1000,1000,2
401793,478343586,0,-1.68747,-1.589094,0.02473328,0.04062446,-0.00190469,-9.889238,0,0,40.91609,1,1,1000,1000,4
127980,174023696,0,1.872207,-1.87171,-0.00615806,-4.38154,0.08382379,-8.807121,0,0,33.73776,1,1,1000,1000,0
424905,503983326,0,-1.507263,1.827968,0.05115102,0.01220056,-0.01664406,-9.810537,0,0,41.25063,1,1,1000,1000,4
68050,106823920,0,1.717559,1.550606,0.03047398,-0.3089796,-0.0254698,-9.81282,0,0,30.91014,1,1,1000,1000,0
303656,369343870,0,0.00330766,0.00331064,-0.00782962,0.02249098,0.02007114,-9.817309,0,0,39.12686,1,1,999,999,3
342365,412303346,0,0.8475537,-2.037121,0.01728447,-2.82981,-0.00128637,-9.434797,0,0,39.91045,1,1,999,999,0
281942,345143554,0,0.5175536,2.343047,0.03727917,-0.2488374,0.04540242,-9.848295,0,0,38.63346,1,1,999,999,0
277961,340703664,0,-1.788824,1.069173,0.05012338,-0.09951627,-0.06198406,-9.644398,0,0,38.53854,1,1,999,999,0
435467,516903989,0,0.00121484,0.00113292,0.00123036,-0.00117793,-0.00069587,-9.816092,0,0,41.40867,1,1,1000,1000,4
31075,65783676,0,-1.922075,-1.316104,0.0354057,0.03101705,-0.04629605,-9.807761,0,0,28.84458,1,1,1000,1000,0
196172,249783380,0,2.251593,1.578488,-0.02316386,1.000002,1.000001,1.000002,0,0,36.25115,1,1,999,999,2
418622,497023611,0,1.623489,1.588211,0.0337381,-0.03603317,0.02452014,-9.825313,0,0,41.16262,1,1,1000,1000,4
399975,476303569,0,2.18363,0.8246535,0.03314874,-0.02830627,-0.0010763,-9.663116,0,0,40.88822,1,1,1000,1000,4
412579,490303800,0,-0.8764237,2.107184,0.03830657,-0.01488549,-0.02391563,-9.78175,0,0,41.0757,1,1,999,999,4
292516,356863864,0,3.252913,-7.999796,-7.524367,0.5997308,-0.9069111,-6.860539,0,0,38.87739,1,1,1000,1000,3
230102,287543270,0,-3.262795,0.8162419,0.00048233,1.000002,1.000001,1.000002,0,0,37.28586,1,1,999,999,2
234490,292423817,0,-1.562512,2.179981,-0.09956951,1.000002,1.000001,1.000002,0,0,37.41032,1,1,999,999,2
209023,264063499,0,1.783229,4.391173,-0.5816729,1.000002,1.000001,1.000002,0,0,36.65784,1,1,999,999,2
51721,88703671,0,-0.6491836,2.346146,0.05779883,-1.058762,-0.02271186,-10.15128,0,0,30.03288,1,1,1000,1000,0
283726,347103603,0,2.421046,0.5310577,0.05133526,-1.224799,-0.03581974,-9.972302,0,0,38.67492,1,1,999,999,0
105218,148503908,0,1.823969,-1.922551,0.01245196,-5.098681,-0.09089017,-8.389267,0,0,32.73779,1,1,1000,1000,1
60394,98343980,0,-2.478364,-0.2949248,0.1456329,-0.6897292,-0.02467103,-10.2932,0,0,30.50618,1,1,1000,1000,0
195271,248783780,0,0.3575462,0.8435993,0.3020809,1.000002,1.000001,1.000002,0,0,36.22194,1,1,1000,1000,2
53602,90783672,0,2.245875,0.7388334,0.03769512,-0.6785964,-0.02197413,-9.899549,0,0,30.1363,1,1,1000,1000,0
215172,270944079,0,3.291595,1.565256,0.1063269,1.000002,1.000001,1.000002,0,0,36.84698,1,1,999,999,2
22142,55863479,0,-1.385068,-2.185174,0.04187183,0.006748,-0.00091486,-9.909842,0,0,28.30145,1,1,1000,1000,0
122673,168143549,0,1.01936,3.044863,0.5630671,-3.690426,0.1962776,-10.87352,0,0,33.51484,1,1,1000,1000,0
400672,477063265,0,-0.2737856,-2.030547,0.0287198,0.01553006,-0.05204586,-8.626101,0,0,40.89862,1,1,999,999,4
363070,435303309,0,2.451626,0.08545372,0.2022581,-0.5242462,-0.02574903,-10.15175,0,0,40.28607,1,1,999,999,0
234005,291864041,0,-1.406434,-2.803128,-0.1244226,1.000002,1.000001,1.000002,0,0,37.39614,1,1,999,999,2
72916,112223426,0,2.300543,-0.7300366,0.03826844,-0.2814441,-0.0025745,-9.876007,0,0,31.16149,1,1,1000,1000,1
15055,48023283,0,0.0006184,0.00059178,0.00073334,-0.00075905,0.00012912,-9.818194,0,0,27.8593,1,1,1000,1000,0
76943,116743284,0,2.231242,0.6900735,0.0344248,-0.3779807,0.04340328,-9.869259,0,0,31.36842,1,1,1000,1000,1
245104,304223262,0,1.696458,1.870054,-0.02305374,1.000002,1.000001,1.000002,0,0,37.70306,1,1,999,999,0
135883,182783524,0,-2.621592,0.6561716,0.01890829,-4.789711,-0.1176327,-8.4569,0,0,34.06186,1,1,999,999,0
143619,191383416,0,-2.254878,1.463319,0.05932936,-4.801332,-0.07555921,-8.512555,0,0,34.37097,1,1,1000,1000,0
169539,220183558,0,2.314,0.6143695,0.03965314,-0.03752505,0.02748916,-9.857596,0,0,35.34391,1,1,1000,1000,0
342001,411903506,0,0.4176963,-2.138439,0.03248248,-3.260391,0.01022477,-9.355214,0,0,39.90366,1,1,1000,1000,0
272534,334663581,0,-2.072354,1.090099,0.03531369,-0.38078,-0.03216039,-9.836918,0,0,38.40713,1,1,999,999,0
194634,248064068,0,1.474159,-2.675051,0.08016794,1.000002,1.000001,1.000002,0,0,36.20084,1,1,1000,1000,2
287347,351143653,0,5.044407,-9.278691,-14.80426,1.10165,-0.9795687,-6.123345,0,0,38.75953,1,1,1000,1000,3
429374,509263713,0,0.0013595,0.00125667,0.00137327,-0.00135699,-0.00101823,-9.817743,0,0,41.31604,1,1,999,999,4
246967,306263279,0,-0.3523683,-2.650423,-0.01309386,-0.226804,0.0348379,-8.581055,0,0,37.75251,1,1,999,999,0
217029,272983263,0,-4.221883,-0.5101562,0.1755116,1.000002,1.000001,1.000002,0,0,36.90223,1,1,1000,1000,2
121765,167103965,0,1.335176,-2.285121,0.08750127,-4.799109,-0.2301033,-8.526827,0,0,33.47496,1,1,999,999,1
430795,511063826,0,0.00133297,0.00109941,0.00135271,-0.00097403,-0.00092592,-9.816957,0,0,41.33807,1,1,1000,1000,4
105138,148423940,0,2.398656,1.197917,-0.00289886,-5.202386,-0.06388733,-8.61981,0,0,32.73452,1,1,1000,1000,1
21461,55143767,0,-2.515067,0.3183428,0.07478485,0.0682792,-0.03282394,-9.90703,0,0,28.26132,1,1,1000,1000,0
2957,16904069,0,0.00016976,0.00021712,0.00028091,-0.00194673,-0.00074627,-9.817307,0,0,25.98574,1,1,999,999,0
196791,250463941,0,2.929577,-1.635625,0.00131228,1.000002,1.000001,1.000002,0,0,36.27096,1,1,1000,1000,2
388998,464103451,0,2.065948,-1.72715,0.06928451,-1.789292,-4.063912,-8.589716,0,0,40.71756,1,1,999,999,4
54783,92103977,0,-0.2488973,2.338525,0.05219769,-0.2676094,-0.01575723,-9.795954,0,0,30.20155,1,1,1000,1000,0
428620,508344081,0,0.00137459,0.001342,0.0012885,-5.93E-05,-0.00044476,-9.817506,0,0,41.30472,1,1,1000,1000,4
47135,83624037,0,-1.433825,-2.142163,0.04624017,-0.8337362,-0.01272343,-10.02519,0,0,29.77728,1,1,1000,1000,0
346125,416463348,0,0.7533507,-2.423655,0.1230312,-1.025624,0.0098046,-10.02455,0,0,39.98054,1,1,1000,1000,0
402235,478823394,0,-2.245795,0.6071513,0.04889686,0.00489879,-0.01623545,-9.996143,0,0,40.92262,1,1,1000,1000,4
39101,74703440,0,-1.1004,-1.522364,0.5881379,-1.536885,-0.112823,-9.707083,0,0,29.31786,1,1,1000,1000,0
178665,230343659,0,-0.4406801,-0.7351429,0.4320242,1.000002,1.000001,1.000002,0,0,35.66545,1,1,1000,1000,0
213894,269503822,0,-1.643631,-3.741661,-0.3999757,1.000002,1.000001,1.000002,0,0,36.80775,1,1,999,999,2
228261,285463269,0,-1.167888,-3.596797,-0.248956,1.000002,1.000001,1.000002,0,0,37.23219,1,1,1000,1000,2
10967,26903401,0,0.00041501,0.00031608,0.00037082,-0.00058497,-0.00157372,-9.817867,0,0,26.60911,1,1,999,999,0
9277,24783416,0,0.00035851,0.00026635,0.00029879,-0.00143213,6.31E-05,-9.81802,0,0,26.47868,1,1,1000,1000,0
333560,402543918,0,2.706518,1.016832,0.03168242,-2.263327,-0.5789921,-9.872478,0,0,39.74215,1,1,999,999,0
305160,370984047,0,0.00333213,0.00329023,-0.01018789,0.0108139,-0.00518623,-9.818117,0,0,39.15888,1,1,1000,1000,3
430041,510143361,0,0.00128652,0.00130707,0.00129555,-0.0016919,-0.00127936,-9.817163,0,0,41.32683,1,1,999,999,4
202564,256903864,0,2.310104,-1.649365,-0.3042552,1.000002,1.000001,1.000002,0,0,36.45634,1,1,999,999,2
94819,136823582,0,2.25928,-2.145145,0.06959823,-6.179739,0.5300923,-7.809741,0,0,32.25097,1,1,1000,1000,1
413479,491303400,0,-1.800866,1.417823,0.0471314,-0.0106441,0.00927721,-9.850148,0,0,41.08876,1,1,1000,1000,4
425022,504143262,0,2.27926,-0.3139777,0.03941315,0.06094987,0.05677602,-9.803843,0,0,41.25262,1,1,999,999,4
67950,106703968,0,2.038378,-1.109455,0.04423599,-0.3244848,-0.007162,-9.94451,0,0,30.9045,1,1,1000,1000,0
302575,368143517,0,0.00336425,0.00332731,-0.00674171,-0.03176567,0.00902618,-9.817949,0,0,39.10332,1,1,1000,1000,3
169460,220103590,0,0.2818919,2.39481,0.04062121,0.01462951,0.02534883,-9.796243,0,0,35.34133,1,1,1000,1000,0
182087,234143805,0,2.36296,-0.4250589,0.0601239,1.000002,1.000001,1.000002,0,0,35.78294,1,1,999,999,0
85290,126103705,0,-2.582321,0.05972047,0.07580028,-4.352394,-0.03920357,-8.475286,0,0,31.78716,1,1,1000,1000,1
293967,358504041,0,4.447278,-5.429409,-5.126738,0.3122736,-1.401572,-6.272067,0,0,38.91077,1,1,1000,1000,3
415361,493383401,0,-1.940471,1.292945,0.05437359,-0.02740982,-0.09285085,-9.828172,0,0,41.11578,1,1,1000,1000,4
374881,448423892,0,-2.281668,0.9310119,0.06070025,-0.8222789,-2.094279,-9.834798,0,0,40.48778,1,1,1000,1000,4
98910,141423408,0,2.864479,0.3309153,0.05178238,-6.017166,0.07615019,-8.113083,0,0,32.44496,1,1,1000,1000,1
277681,340383792,0,1.111576,2.043451,0.0253087,-0.159182,0.05478777,-9.809937,0,0,38.53164,1,1,999,999,0
371440,444583762,0,-0.77835,-2.257025,0.03143412,-0.02631515,-0.01486425,-9.940181,0,0,40.42965,1,1,999,999,0
97230,139543327,0,1.369915,2.625717,0.03959034,-6.055381,0.1388554,-8.002558,0,0,32.36604,1,1,1000,1000,1
291846,356143319,0,4.787603,-11.23886,-6.984087,0.9067653,-0.3791066,-6.088042,0,0,38.86267,1,1,1000,1000,3
143639,191423400,0,0.8733971,-2.501699,0.05473119,-4.888746,-0.04917161,-8.429722,0,0,34.37239,1,1,1000,1000,0
155520,204623951,0,-0.2238448,-2.577489,0.00870256,-4.840958,0.03327953,-8.406454,0,0,34.82986,1,1,999,999,0
400134,476463505,0,-1.01608,-1.952672,0.03428001,0.01149874,-0.03394663,-9.100423,0,0,40.89042,1,1,1000,1000,4
191060,244103986,0,-0.4307139,2.44615,0.1756293,1.000002,1.000001,1.000002,0,0,36.08393,1,1,999,999,2
292360,356703928,0,3.26061,-4.055593,-4.427629,-1.291873,-2.144531,-8.038471,0,0,38.87412,1,1,1000,1000,3
217825,273863744,0,-1.263811,2.25109,-0.07117676,1.000002,1.000001,1.000002,0,0,36.92595,1,1,1000,1000,2
86733,127743882,0,2.413241,-1.107046,0.07876593,-4.976127,0.1161901,-8.497075,0,0,31.8592,1,1,1000,1000,1
314823,381743908,0,0.00318839,0.00312658,-0.01311299,0.00604984,0.02484442,-9.817146,0,0,39.36467,1,1,1000,1000,3
62998,101223661,0,0.8545973,2.145049,0.01910244,-0.5113358,-0.0289695,-9.836005,0,0,30.64466,1,1,1000,1000,0
415199,493223465,0,0.5306441,-2.343285,0.04046419,-0.00076473,-0.03150285,-9.852027,0,0,41.11371,1,1,1000,1000,4
181147,233063404,0,2.223473,1.167387,0.00175472,1.000002,1.000001,1.000002,0,0,35.7497,1,1,1000,1000,0
340923,410703986,0,-1.409629,-2.462733,0.07325481,-3.215092,0.05140307,-8.877824,0,0,39.88324,1,1,999,999,0
396812,472783311,0,-2.364323,-0.4481605,0.03785821,0.0225775,-0.00999198,-9.798354,0,0,40.83969,1,1,999,999,4
170901,221703783,0,0.6020983,1.781695,0.03944114,-0.06334512,-0.04172385,-9.273816,0,0,35.39271,1,1,1000,1000,0
344886,415103892,0,2.253945,0.8981342,0.04290306,-0.1722837,0.0186943,-9.917208,0,0,39.95773,1,1,999,999,0
109487,153303654,0,0.8278118,-2.456936,0.01619012,-4.731586,-0.09521296,-8.439994,0,0,32.93242,1,1,1000,1000,1
327252,395543386,0,0.00295219,0.00292431,-0.01733984,-0.01461594,0.00712081,-9.816651,0,0,39.61802,1,1,999,999,3
160259,209863521,0,2.342835,0.7414394,-0.00525239,-2.235663,0.04890749,-9.951224,0,0,35.00596,1,1,999,999,0
376479,450184021,0,0.4706277,2.664941,0.0521726,-1.503075,-3.630546,-9.204636,0,0,40.51418,1,1,999,999,4
170641,221423895,0,-2.167968,0.646996,0.04999288,-0.01585542,-0.048898,-9.715578,0,0,35.38374,1,1,1000,1000,0
215674,271463871,0,-1.338506,2.721242,-0.3808075,1.000002,1.000001,1.000002,0,0,36.8611,1,1,999,999,2
403373,480063731,0,2.287871,-0.2324473,0.04254624,-0.00562332,0.05356257,-9.795303,0,0,40.93943,1,1,999,999,4
403914,480663491,0,2.249444,0.4033314,0.03913152,0.00485234,0.01431145,-9.827141,0,0,40.94755,1,1,999,999,4
55485,92863673,0,0.5919346,-2.896789,-0.2588764,-0.2903637,-0.01147273,-9.89426,0,0,30.23899,1,1,1000,1000,0
209325,264423355,0,1.522344,-2.600223,-0.3302432,1.000002,1.000001,1.000002,0,0,36.66784,1,1,999,999,2
367111,439784016,0,0.2319858,2.408901,0.04293626,-0.142659,0.06142418,-9.982499,0,0,40.35594,1,1,999,999,0
348105,418663301,0,2.339849,0.3319363,0.0379368,-0.6061957,0.05383783,-9.928102,0,0,40.01722,1,1,1000,1000,0
64720,103143726,0,-1.639134,1.759699,0.1086591,-0.5603219,-0.02799716,-10.19835,0,0,30.73624,1,1,1000,1000,0
93930,135823982,0,2.611671,-1.899044,0.0766486,-6.156521,0.5795236,-8.012354,0,0,32.2084,1,1,1000,1000,1
37019,72383535,0,-2.205645,0.7770175,0.04919476,-0.02204569,-0.01329934,-9.817892,0,0,29.19612,1,1,1000,1000,0
35115,70263550,0,-0.6851245,2.289842,0.03962282,-0.01148995,-0.0344722,-9.837825,0,0,29.08404,1,1,1000,1000,0
251229,311023874,0,0.3500732,-2.829015,0.05941678,-0.09256905,0.00948635,-9.38044,0,0,37.86659,1,1,999,999,0
3186,17183957,0,0.0002198,0.0001766,0.00032464,-0.00041585,-0.00098597,-9.818119,0,0,26.00348,1,1,999,999,0
114843,159343737,0,0.4759841,2.533475,0.06124524,-4.677411,-0.3074906,-8.811709,0,0,33.17295,1,1,1000,1000,1
100392,143063585,0,-2.208984,1.804355,0.05760267,-5.524293,-0.06896669,-8.051164,0,0,32.5134,1,1,1000,1000,1
78683,118663349,0,0.6734868,2.687591,-0.0120406,-1.225975,0.07865988,-9.944323,0,0,31.45539,1,1,1000,1000,1
81528,121863735,0,1.378287,2.132208,0.08066393,-0.4529404,0.03603198,-9.929463,0,0,31.59909,1,1,1000,1000,1
192694,245944083,0,-1.812867,-1.369646,0.5999343,1.000002,1.000001,1.000002,0,0,36.13845,1,1,999,999,2
363408,435663998,0,-1.627233,-2.037615,0.07805432,-0.9291892,-0.02445375,-10.16032,0,0,40.29172,1,1,999,999,0
176044,227423994,0,-1.357033,2.007209,0.09955731,-0.7540877,-0.02261091,-10.27644,0,0,35.57415,1,1,999,999,0
160120,209743569,0,1.04111,-1.9513,0.01298146,-2.396525,-0.00577156,-9.804859,0,0,35.00196,1,1,999,999,0
378759,452743830,0,2.182508,1.498677,0.04432554,-1.736075,-4.066059,-8.782211,0,0,40.55229,1,1,999,999,4
99899,142543793,0,0.1933412,2.818272,0.04398138,-5.729594,-0.00306023,-8.251055,0,0,32.49174,1,1,1000,1000,1
122143,167543789,0,-0.1999371,2.873123,0.07273933,-4.880826,-0.3611565,-8.626497,0,0,33.49185,1,1,999,999,1
160102,209703585,0,-2.093755,1.347104,0.01980111,-2.466835,-0.09246004,-9.6576,0,0,35.00063,1,1,999,999,0
204447,258983865,0,3.178295,-0.3230389,-0.5103109,1.000002,1.000001,1.000002,0,0,36.51538,1,1,999,999,2
79337,119423878,0,0.8045372,-2.167528,0.02164486,-1.1275,0.02242304,-9.916509,0,0,31.48966,1,1,1000,1000,1
276677,339263407,0,1.597744,-1.744256,0.07097932,-0.4552563,0.042672,-9.924826,0,0,38.50745,1,1,999,999,0
248949,308464065,0,2.20224,-1.066675,0.05473255,-1.107011,0.0173252,-10.51624,0,0,37.80546,1,1,1000,1000,0
279223,342103937,0,-2.529256,-0.3048667,0.03441433,-1.104519,0.00624606,-10.12207,0,0,38.56862,1,1,999,999,0
265732,327144090,0,-2.608412,0.01576027,0.07418942,-1.105006,0.01044352,-10.38905,0,0,38.23978,1,1,999,999,0
167200,217583765,0,1.617954,1.744852,0.0449004,-0.02094725,-0.0009814,-10.08194,0,0,35.25986,1,1,999,999,0
260654,321463863,0,1.298748,1.973668,0.03406637,-0.3927618,-0.0351434,-10.18426,0,0,38.11057,1,1,999,999,0
61477,99543500,0,-2.273459,0.7161693,0.02098261,-1.458616,-0.04416123,-9.700442,0,0,30.56404,1,1,1000,1000,0
276720,339343375,0,-0.9927815,-2.126166,0.06195153,-0.4877437,-0.03413219,-9.874129,0,0,38.50918,1,1,999,999,0
377200,450983701,0,-1.187663,2.546424,0.05298691,-1.624308,-4.003203,-8.966118,0,0,40.52612,1,1,999,999,4
215714,271543839,0,1.516881,3.004733,-0.4192016,1.000002,1.000001,1.000002,0,0,36.86327,1,1,999,999,2
256870,317263877,0,0.240651,-2.116077,0.01254357,-1.156,0.02210136,-10.08813,0,0,38.01344,1,1,999,999,0
263197,324303560,0,1.049444,-2.104744,0.05091494,-0.465746,-0.02537462,-9.936419,0,0,38.17548,1,1,999,999,0
212619,268063565,0,0.9643806,3.534709,-0.4609738,1.000002,1.000001,1.000002,0,0,36.76833,1,1,1000,1000,2
11607,27703914,0,0.00044222,0.00043103,0.00039612,-0.00097365,-0.00105518,-9.817317,0,0,26.65808,1,1,999,999,0
61817,99903356,0,2.198822,0.970795,0.04890666,-1.181715,0.01831112,-9.888731,0,0,30.58135,1,1,1000,1000,0
44068,80223731,0,-0.2807178,-2.23078,0.01440316,-1.075422,-0.00156092,-9.940031,0,0,29.60378,1,1,1000,1000,0
213533,269103982,0,-2.441343,-2.49077,0.01810203,1.000002,1.000001,1.000002,0,0,36.79682,1,1,999,999,2
389917,465143868,0,-2.152661,1.709416,0.05713425,-1.79856,-4.311309,-8.832912,0,0,40.73238,1,1,999,999,4
351469,422423463,0,2.402631,-0.1403729,-0.00909413,-0.7700887,-0.0150305,-9.952885,0,0,40.07928,1,1,999,999,0
328873,397343499,0,0.00292144,0.00288428,-0.01740087,-0.00887874,0.0325346,-9.81681,0,0,39.65022,1,1,999,999,3
85192,125983753,0,-1.047664,2.361961,0.07636896,-4.395262,-0.04978544,-8.751424,0,0,31.78188,1,1,1000,1000,1
197349,251103685,0,0.3908435,3.097963,-0.2351959,1.000002,1.000001,1.000002,0,0,36.28956,1,1,999,999,2
148583,196903707,0,-2.698638,-0.7169219,0.05927048,-4.863993,-0.1346426,-8.300667,0,0,34.56476,1,1,999,999,0
6983,21943719,0,0.00037129,0.00026978,0.00029361,-0.00111679,-0.00069385,-9.817387,0,0,26.30252,1,1,999,999,0
263894,325064089,0,-2.37694,-0.07019645,0.04412526,-0.2787217,-0.05562705,-9.805438,0,0,38.19275,1,1,1000,1000,0
218648,274783376,0,-0.4806327,-1.378824,0.05141297,1.000002,1.000001,1.000002,0,0,36.95067,1,1,999,999,2
130940,177304050,0,-0.8752452,-2.478781,0.03732384,-4.742582,-0.01021756,-8.35004,0,0,33.86022,1,1,999,999,0
94026,135943934,0,2.577264,1.948628,0.05621186,-6.231608,0.4745064,-7.97687,0,0,32.21351,1,1,1000,1000,1
372958,446263923,0,-1.354666,-2.04346,0.03613089,-0.1493993,-0.4090964,-9.976769,0,0,40.45518,1,1,1000,1000,4
370617,443663297,0,-1.887691,1.381777,0.04953739,-0.01037471,0.00936465,-9.793233,0,0,40.41562,1,1,1000,1000,0
275456,337943935,0,-2.342766,-0.4961331,0.04224072,-1.171905,0.01163048,-9.813886,0,0,38.47882,1,1,1000,1000,0
71635,110784002,0,-1.759434,-1.534532,0.03455457,-0.5981955,-0.01472658,-9.829626,0,0,31.0949,1,1,1000,1000,1
184866,237223406,0,2.465873,1.496707,-0.00523309,1.000002,1.000001,1.000002,0,0,35.87709,1,1,999,999,0
174784,226023721,0,-1.372994,1.864894,-0.1013342,-0.3434474,0.01571091,-9.859729,0,0,35.53006,1,1,1000,1000,0
31875,66663324,0,-1.996934,1.262607,0.05243558,0.00850282,0.01351014,-9.837482,0,0,28.8919,1,1,1000,1000,0
398073,474183584,0,-1.276179,-1.882661,0.0371682,0.05558855,-0.02333121,-9.810175,0,0,40.85906,1,1,999,999,4
121208,166463388,0,-2.294579,1.31683,0.06127706,-4.65728,-0.418798,-8.635671,0,0,33.45034,1,1,1000,1000,1
269316,331103339,0,-2.345703,-0.3905516,0.1651468,-0.1604149,-0.06184801,-9.963385,0,0,38.32843,1,1,999,999,0
184053,236303774,0,0.6595836,-3.231282,0.06146201,1.000002,1.000001,1.000002,0,0,35.84907,1,1,1000,1000,0
109666,153503574,0,0.944658,-2.470883,0.01499026,-4.757879,-0.05113447,-8.493767,0,0,32.94046,1,1,1000,1000,1
346845,417263861,0,1.84343,-1.174643,-0.01174619,-1.42212,0.00766044,-9.747426,0,0,39.99391,1,1,999,999,0
142119,189744072,0,2.701059,0.1574118,0.04669195,-5.019918,-0.06782424,-8.698102,0,0,34.31271,1,1,999,999,0
100967,143743313,0,0.2796984,2.852767,0.04544552,-5.581288,-0.06436113,-8.302925,0,0,32.54168,1,1,1000,1000,1
273637,335903918,0,2.022759,-1.615022,-0.02533572,-0.1194141,0.0230726,-9.530636,0,0,38.43432,1,1,1000,1000,0
116089,160744010,0,0.3028778,2.677264,0.04174774,-4.679049,-0.3311371,-8.902531,0,0,33.22802,1,1,1000,1000,1
425923,505143695,0,0.00158353,0.00137014,0.00163527,0.00021207,0.00182798,-9.929255,0,0,41.26509,1,1,999,999,4
233670,291503352,0,2.028406,1.722673,-0.06400681,1.000002,1.000001,1.000002,0,0,37.38701,1,1,999,999,2
350367,421183959,0,-2.37205,0.783272,0.1181009,-1.292649,-0.05403585,-9.752254,0,0,40.0589,1,1,1000,1000,0
81569,121943703,0,2.187177,-0.7860072,0.09461006,-0.5250807,0.03510933,-9.912975,0,0,31.60267,1,1,1000,1000,1
167457,217863653,0,1.752241,-1.65604,0.07606898,0.01554799,0.000224,-10.146,0,0,35.26894,1,1,999,999,0
124197,169823710,0,2.229011,-0.9732292,1.375905,0.04183634,-0.5399849,-10.4021,0,0,33.57898,1,1,1000,1000,0
32597,67463837,0,-1.941891,1.264475,0.05286485,0.01292353,-0.02312978,-9.80864,0,0,28.9348,1,1,1000,1000,0
341002,410783954,0,-2.63717,0.7718307,0.1046138,-3.253049,-0.00361514,-9.015516,0,0,39.8846,1,1,999,999,0
352786,423863720,0,-2.359407,-0.287491,0.04442238,-0.2384221,-0.06414683,-9.796793,0,0,40.10284,1,1,1000,1000,0
409977,487423286,0,-0.08563994,2.331057,0.04044119,-0.01548574,0.02581281,-9.85019,0,0,41.03784,1,1,999,999,4
64244,102583950,0,0.9970397,-2.844059,0.0730401,-0.1402748,-0.05582635,-10.20421,0,0,30.70959,1,1,1000,1000,0
326351,394543786,0,0.00291778,0.00288983,-0.01729335,0.02434788,0.03776204,-9.817048,0,0,39.60005,1,1,999,999,3
368472,441303408,0,-2.201206,-1.014211,0.04114558,-0.00573949,-0.03520285,-9.798736,0,0,40.37941,1,1,1000,1000,0
311903,378463554,0,0.00318982,0.00317629,-0.01298978,0.01408598,0.0099926,-9.817137,0,0,39.30272,1,1,1000,1000,3
362007,434143773,0,-0.8096887,2.226222,0.039852,-0.1808996,-0.01363891,-9.820198,0,0,40.26781,1,1,999,999,0
416001,494103946,0,-1.23752,-1.98941,0.02655095,0.00142984,-0.01937561,-9.842475,0,0,41.12509,1,1,999,999,4
74081,113503747,0,-0.3082678,-2.465073,0.03448141,-1.009631,-0.0097469,-9.964311,0,0,31.22041,1,1,1000,1000,1
69049,107943472,0,-0.3026234,2.315995,-0.00745177,-0.5113527,-0.01010274,-10.23012,0,0,30.96264,1,1,1000,1000,1
23709,57623608,0,0.84372,2.390107,0.04249981,-0.05806023,-0.00082462,-9.922566,0,0,28.39912,1,1,1000,1000,0
107095,150623893,0,2.405219,1.087122,0.03273103,-5.041492,-0.1572702,-8.670988,0,0,32.82413,1,1,1000,1000,1
100078,142743713,0,0.7466646,2.740866,0.0411181,-5.767789,-0.07398388,-8.261977,0,0,32.50008,1,1,1000,1000,1
6787,21663831,0,0.00019636,0.00022924,0.0003052,-0.00186577,-0.00088554,-9.817913,0,0,26.28506,1,1,999,999,0
114292,158703993,0,1.428375,-2.15513,0.04017061,-4.655921,-0.2222108,-8.623546,0,0,33.1477,1,1,1000,1000,1
393880,469543774,0,1.042459,-2.228198,0.0465626,-0.0942183,-0.2864942,-10.02146,0,0,40.79452,1,1,999,999,4
277038,339664080,0,1.863595,-1.463763,0.07239776,-0.3170525,0.00867667,-9.863804,0,0,38.5161,1,1,999,999,0
350828,421703751,0,-0.441514,-2.225248,0.1032243,-1.227182,-0.02824742,-9.771328,0,0,40.06745,1,1,1000,1000,0
276961,339583279,0,2.002341,1.318108,0.05457698,-0.4078012,-0.01120035,-9.850956,0,0,38.51437,1,1,999,999,0
277782,340503744,0,-1.732345,1.587194,0.0440376,-0.1345726,-0.02561254,-9.786715,0,0,38.53423,1,1,999,999,0
109131,152903814,0,1.639378,-2.064248,0.06472438,-4.851367,-0.1213679,-8.558311,0,0,32.91632,1,1,1000,1000,1
210841,266103516,0,-1.470899,-2.515468,-0.4954978,1.000002,1.000001,1.000002,0,0,36.71437,1,1,999,999,2
277139,339784032,0,1.773703,1.530197,0.05321738,-0.3220953,0.05733846,-9.852874,0,0,38.51869,1,1,999,999,0
91956,133584045,0,-2.681547,1.804859,0.08398682,-5.650953,0.4179313,-7.452682,0,0,32.11253,1,1,1000,1000,1
270136,332023804,0,0.2421034,-2.441481,0.05306216,-0.9512507,-0.01201054,-10.05324,0,0,38.34886,1,1,999,999,0
157481,206783920,0,-1.667248,2.617206,0.05678051,-4.915631,-0.2808142,-8.797656,0,0,34.90282,1,1,1000,1000,0
21963,55663559,0,-1.722695,-1.959159,0.05417543,0.05861427,-0.01512772,-9.875738,0,0,28.29031,1,1,1000,1000,0
144001,191824073,0,0.4001825,-2.563994,0.06345887,-4.92097,-0.09130656,-8.389016,0,0,34.38655,1,1,1000,1000,0
232234,289903992,0,2.796289,1.843189,-0.334732,1.000002,1.000001,1.000002,0,0,37.3463,1,1,999,999,2
127499,173463920,0,-1.204836,2.329509,0.2689956,-4.07492,-0.06178633,-9.096615,0,0,33.71672,1,1,1000,1000,0
338240,407743504,0,-0.6149571,-2.81829,0.06983778,-4.674207,-0.06903587,-8.460562,0,0,39.8325,1,1,999,999,0
108340,152023333,0,2.623619,0.6939729,0.06312783,-4.958565,-0.2033911,-8.753662,0,0,32.88083,1,1,999,999,1
94165,136063886,0,-1.194736,2.986481,0.07085647,-5.928853,0.4034721,-7.611023,0,0,32.21863,1,1,1000,1000,1
176383,227783850,0,2.314413,-0.9993908,0.04598482,-1.066933,0.01353145,-10.00663,0,0,35.58546,1,1,999,999,0
178727,230383643,0,1.837257,0.9587083,0.4220033,1.000002,1.000001,1.000002,0,0,35.6667,1,1,1000,1000,0
147301,195463450,0,1.112712,2.392513,0.04335593,-4.945812,-0.1089113,-8.703228,0,0,34.51455,1,1,1000,1000,0
371718,444903634,0,2.03972,-1.263427,0.04754217,0.0001398,0.00214849,-9.878564,0,0,40.43452,1,1,999,999,0
379021,453023718,0,2.266578,-1.241919,0.05595675,-1.696838,-3.973109,-8.628014,0,0,40.55644,1,1,1000,1000,4
171780,222663399,0,0.7220274,-2.426061,1.464186,-0.6911389,-0.3304496,-10.25242,0,0,35.4234,1,1,999,999,0
186923,239503327,0,0.9945944,2.275352,0.00094385,1.000002,1.000001,1.000002,0,0,35.94616,1,1,999,999,0
104783,148023267,0,2.59741,0.5383608,0.04818843,-5.221624,-0.0185286,-8.610272,0,0,32.71815,1,1,1000,1000,1
55888,93343481,0,-1.895199,-1.690549,-0.1949479,-0.694877,-0.01316874,-10.29924,0,0,30.26259,1,1,1000,1000,0
196071,249663428,0,2.14127,-1.844742,0.0439471,1.000002,1.000001,1.000002,0,0,36.24765,1,1,999,999,2
92766,134503677,0,-2.539572,-1.8763,0.05831002,-5.775497,0.5766424,-7.496876,0,0,32.15199,1,1,1000,1000,1
236028,294143962,0,-2.888926,-0.947545,-0.00240722,1.000002,1.000001,1.000002,0,0,37.45371,1,1,999,999,2
58292,95984091,0,2.119697,-0.7992102,0.07058002,-0.6662598,-0.00621717,-9.960348,0,0,30.39171,1,1,1000,1000,0
68129,106903888,0,1.969872,-1.200567,0.04837871,-0.2761125,-0.02386261,-9.90204,0,0,30.91389,1,1,1000,1000,0
139596,186943526,0,2.628323,0.5209821,0.05622503,-5.076215,-0.1615915,-8.714587,0,0,34.21249,1,1,999,999,0
406016,483023380,0,1.19838,-2.207735,0.05087924,0.04747329,0.01040656,-10.68912,0,0,40.9793,1,1,999,999,4
240948,299583452,0,0.789767,1.319896,1.444953,1.000002,1.000001,1.000002,0,0,37.58932,1,1,999,999,2
122125,167503805,0,1.29143,-2.300266,0.08110865,-4.801786,-0.2553131,-8.54246,0,0,33.49031,1,1,999,999,1
36554,71863743,0,-0.317611,2.304208,0.04114758,-0.00170571,0.01082784,-9.837304,0,0,29.1687,1,1,1000,1000,0
32415,67263917,0,-1.985353,1.186316,0.05105447,-0.01158416,-0.00141564,-9.845677,0,0,28.92408,1,1,1000,1000,0
5046,19503862,0,0.00017634,0.00018468,0.00031926,-0.00064613,-0.00096142,-9.816422,0,0,26.14982,1,1,999,999,0
295319,360023433,0,0.01485055,-0.1155082,-0.00883178,-0.09190107,-2.48094,-7.189494,0,0,38.94154,1,1,999,999,3
286808,350543893,0,3.247813,-5.022219,-4.649579,-0.1239084,-0.3640628,-6.025747,0,0,38.74704,1,1,999,999,3
327569,395864091,0,0.00291787,0.00293264,-0.01734414,0.01135702,-0.03137345,-9.817418,0,0,39.62376,1,1,999,999,3
423000,501863341,0,2.282986,-0.3450261,0.04319287,0.01642167,-0.01455119,-9.85519,0,0,41.22404,1,1,1000,1000,4
253087,313063891,0,-1.714149,1.819045,0.04452782,-1.367394,-0.03197706,-9.827777,0,0,37.91494,1,1,1000,1000,0
364330,436703582,0,1.474103,1.925348,0.01906052,-1.333294,-0.02068241,-9.815519,0,0,40.30801,1,1,1000,1000,0
204524,259063833,0,0.4216571,-2.944732,-0.4550866,1.000002,1.000001,1.000002,0,0,36.51764,1,1,999,999,2
137623,184743573,0,2.655154,0.5729114,0.03657802,-5.031548,-0.04472458,-8.728561,0,0,34.13309,1,1,999,999,0
274516,336863534,0,-1.750365,-1.899944,-0.00255787,-0.8027632,-0.06381006,-10.28972,0,0,38.4553,1,1,999,999,0
414718,492663689,0,1.554383,1.839883,0.02991374,-0.00569624,0.01127124,-9.750807,0,0,41.10645,1,1,999,999,4
146703,194823706,0,0.1723369,-2.600523,0.03424657,-4.871297,-0.04057877,-8.374739,0,0,34.49215,1,1,999,999,0
334460,403543518,0,0.9194114,2.925694,0.09714658,-3.451479,0.01913612,-9.50474,0,0,39.75965,1,1,1000,1000,0
158381,207783520,0,-0.5487831,2.707925,-0.2711774,-4.809068,-0.1939603,-8.979805,0,0,34.93643,1,1,999,999,0
247448,306823888,0,-1.53806,1.735245,0.0120669,-0.8247227,-0.03451122,-9.689599,0,0,37.76602,1,1,999,999,0
27115,61383770,0,0.02500659,-2.260448,0.03841367,0.06396644,0.02176348,-9.556136,0,0,28.60589,1,1,1000,1000,0
337121,406464016,0,0.3443995,-2.92135,0.08962986,-4.630678,0.09786051,-8.545413,0,0,39.81041,1,1,1000,1000,0
366752,439383343,0,0.7451632,2.203334,0.04651787,-0.1945093,-0.00029201,-9.949493,0,0,40.34975,1,1,999,999,0
34974,70143598,0,2.084758,1.169436,0.02711469,0.02668072,0.01530135,-9.802814,0,0,29.07767,1,1,1000,1000,0
388360,463383739,0,-2.111562,-1.744946,0.04186314,-1.720297,-4.100635,-8.656404,0,0,40.70727,1,1,1000,1000,4
16836,49983332,0,0.00070734,0.00071066,0.0007269,0.00470972,-0.01485059,-10.79605,0,0,27.97092,1,1,1000,1000,0
372239,445463410,0,-2.179829,-0.9252908,0.03573598,-0.06391655,-0.1231248,-9.958082,0,0,40.44304,1,1,999,999,0
120002,165143916,0,0.2113715,2.615544,0.04456406,-4.769428,-0.3715553,-8.786859,0,0,33.39941,1,1,1000,1000,1
144080,191904041,0,-2.330886,-1.548732,0.05116655,-4.778056,-0.130757,-8.263058,0,0,34.38938,1,1,999,999,0
319505,386943494,0,0.0030254,0.00308,-0.01722488,-0.01853065,-0.02467875,-9.816396,0,0,39.46151,1,1,1000,1000,3
54504,91783272,0,2.236535,0.5564888,0.03243891,-0.3454355,-0.00172576,-9.856014,0,0,30.18576,1,1,1000,1000,0
357223,428823402,0,-2.044641,-1.252545,0.02714892,-0.2556449,-0.00337181,-9.842504,0,0,40.18314,1,1,1000,1000,0
41445,77304066,0,-1.873825,-1.430592,0.05047655,-0.2103495,-0.01866283,-9.814018,0,0,29.45319,1,1,1000,1000,0
76114,115783668,0,-2.164547,0.8080426,0.0589674,-0.6972471,-0.0302034,-9.854302,0,0,31.32473,1,1,1000,1000,1
79038,119064022,0,0.7573165,2.713997,-0.06073244,-1.408504,0.04406138,-9.677983,0,0,31.47343,1,1,1000,1000,1
286043,349663412,0,1.252514,-2.004483,0.04410506,-0.359596,-0.00363292,-9.896136,0,0,38.72867,1,1,999,999,0
27655,61983530,0,-0.5851128,-2.310501,0.02839032,0.06880445,-0.00928906,-9.736712,0,0,28.63864,1,1,1000,1000,0
108041,151663477,0,-2.497842,0.8448038,0.05436796,-4.690146,-0.2507073,-8.556005,0,0,32.86627,1,1,1000,1000,1
188887,241663296,0,1.265394,-3.227478,0.08654806,1.000002,1.000001,1.000002,0,0,36.01112,1,1,999,999,2
324188,392143913,0,0.00295079,0.00297366,-0.01736685,-0.00468276,-0.03067657,-9.817763,0,0,39.55668,1,1,999,999,3
162773,212664067,0,2.471403,0.2140127,-1.171034,-0.8755179,0.00295347,-10.10584,0,0,35.0988,1,1,999,999,0
211719,267063965,0,0.07498387,1.783705,0.1291288,1.000002,1.000001,1.000002,0,0,36.74084,1,1,999,999,2
362369,434543613,0,-1.223191,1.496363,0.05999607,-0.1262325,-0.05131485,-9.79361,0,0,40.27411,1,1,999,999,0
210499,265743660,0,1.311799,0.06109067,-0.463829,1.000002,1.000001,1.000002,0,0,36.70443,1,1,1000,1000,2
120240,165383820,0,-1.76292,-2.011481,0.04352568,-4.604534,-0.2744575,-8.362886,0,0,33.40869,1,1,1000,1000,1
92132,133783965,0,-2.952127,1.224801,0.07908583,-5.656809,0.4727108,-7.488013,0,0,32.12112,1,1,1000,1000,1
130118,176383585,0,-2.617546,0.5620716,0.02146482,-4.647884,-0.08394354,-8.472948,0,0,33.82601,1,1,1000,1000,0
346586,416983973,0,2.171356,1.510619,-0.02999692,-1.531475,0.05727282,-9.747767,0,0,39.98923,1,1,1000,1000,0
260575,321383895,0,-1.69084,1.602334,0.05529593,-0.3321894,-0.03483602,-10.32253,0,0,38.10873,1,1,999,999,0
238902,297343515,0,-2.076149,0.3173213,-0.1283164,1.000002,1.000001,1.000002,0,0,37.53378,1,1,999,999,2
248529,308023408,0,-2.437013,0.6905129,0.04846326,-1.420193,0.0299269,-10.30192,0,0,37.7949,1,1,1000,1000,0
54987,92343881,0,-1.161084,-2.118466,0.03696709,-0.1738811,-0.0053795,-9.637699,0,0,30.21339,1,1,1000,1000,0
244926,304023342,0,2.071457,1.589423,-0.05524948,1.000002,1.000001,1.000002,0,0,37.69819,1,1,999,999,0
16913,50063300,0,0.00062105,0.00069319,0.00065879,-0.04277889,0.01461675,-10.74358,0,0,27.97546,1,1,1000,1000,0
395840,471703743,0,-1.715507,-1.700674,0.03402034,0.07160263,0.02275709,-9.853664,0,0,40.82469,1,1,1000,1000,4
419163,497623371,0,0.8712029,2.098234,0.03389332,0.00025821,-0.02618689,-9.781814,0,0,41.17029,1,1,999,999,4
46752,83183380,0,-0.2150057,2.403156,0.04885946,-0.4775878,0.00371714,-10.23342,0,0,29.75494,1,1,1000,1000,0
24610,58624041,0,0.4514659,2.479283,0.04190645,0.0188401,-0.0369287,-9.482333,0,0,28.45436,1,1,1000,1000,0
239622,298144028,0,-2.49839,-0.5291742,-1.381544,1.000002,1.000001,1.000002,0,0,37.55367,1,1,1000,1000,2
43804,79943843,0,2.284039,-0.4457228,0.02291341,-1.300808,-0.02374363,-9.912624,0,0,29.5894,1,1,1000,1000,0
344785,414983940,0,1.501428,-1.94571,0.05953534,-0.2739455,0.02549327,-9.993793,0,0,39.95572,1,1,999,999,0
49757,86543702,0,0.1027936,-2.31436,0.0422285,-0.3782111,-0.02686063,-9.929943,0,0,29.92473,1,1,1000,1000,0
74160,113583715,0,-2.461381,-0.2804893,0.05541107,-1.103416,-0.03781179,-10.1316,0,0,31.22408,1,1,1000,1000,1
136361,183343300,0,2.458109,1.058543,0.0484675,-5.0042,-0.08622552,-8.629239,0,0,34.08226,1,1,1000,1000,0
8726,24103688,0,0.00031506,0.00026518,0.00031659,-0.00067521,-0.00049307,-9.817867,0,0,26.43666,1,1,999,999,0
369271,442183889,0,-2.320302,0.5352034,0.04520451,-0.0205143,-0.02624836,-9.818917,0,0,40.39294,1,1,999,999,0
438930,521143959,0,0.00114379,0.00116168,0.00107837,-0.00067279,-0.00123945,-9.817844,0,0,41.45907,1,1,1000,1000,4
138586,185783990,0,-2.652084,0.5226291,0.05916134,-4.778194,-0.03544181,-8.453133,0,0,34.1707,1,1,1000,1000,0
419801,498343916,0,-2.203103,0.7491482,0.04572625,0.04527676,0.00201049,-9.807753,0,0,41.17947,1,1,1000,1000,4
348206,418784086,0,0.417457,2.42512,0.02950481,-0.5738848,0.03992297,-9.84388,0,0,40.01921,1,1,1000,1000,0
20283,53823462,0,-0.8051039,2.46026,0.06049619,-0.00906948,0.01627296,-9.893892,0,0,28.18751,1,1,1000,1000,0
342922,412943923,0,-0.5247862,2.437311,0.05369631,-2.04081,-0.00522854,-9.365485,0,0,39.9213,1,1,999,999,0
422140,500943709,0,-0.8117543,-2.161581,0.03498313,0.02248723,-0.02839651,-9.821944,0,0,41.21244,1,1,999,999,4
89286,130583579,0,-0.93465,2.900067,0.08633734,-5.468358,0.2744216,-8.589405,0,0,31.98301,1,1,1000,1000,1
430251,510383265,0,0.00125927,0.00121377,0.00139567,0.00019949,-0.00192414,-9.816852,0,0,41.32977,1,1,999,999,4
437674,519583750,0,0.00112749,0.0011419,0.00112088,-0.00242751,-0.00065168,-9.817619,0,0,41.44061,1,1,999,999,4
246245,305463599,0,-1.188827,-1.818837,0.02423643,-0.3034705,0.04375682,-9.138031,0,0,37.73315,1,1,1000,1000,0
368291,441103488,0,-2.207569,-0.8865224,0.03951854,-0.04159006,-0.02953734,-9.724095,0,0,40.37633,1,1,1000,1000,0
352826,423943688,0,-0.9657976,2.113062,0.04376351,-0.2703668,-0.0009384,-9.778841,0,0,40.10415,1,1,1000,1000,0
255531,315783636,0,1.018781,-2.237311,0.04681011,-0.09931418,0.00552457,-9.771936,0,0,37.97889,1,1,1000,1000,0
187080,239663263,0,0.8514627,-1.949233,-0.05319946,1.000002,1.000001,1.000002,0,0,35.95099,1,1,999,999,0
105550,148863764,0,-2.55726,0.797577,0.02816138,-4.955624,-0.1489432,-8.356205,0,0,32.75249,1,1,1000,1000,1
223804,280543571,0,0.8841825,-2.330545,-0.09878146,1.000002,1.000001,1.000002,0,0,37.10374,1,1,1000,1000,2
263656,324823352,0,2.183545,1.089469,0.03623374,-0.3608263,-0.01260305,-9.843179,0,0,38.1873,1,1,999,999,0
147700,195944091,0,2.439519,-0.7541319,0.06300396,-5.006074,-0.06310917,-8.643897,0,0,34.53131,1,1,1000,1000,0
156959,206223311,0,-0.8560131,-2.491544,0.05313943,-4.820559,-0.06581713,-8.277143,0,0,34.88396,1,1,1000,1000,0
413678,491543304,0,1.123402,-2.085982,0.05006048,0.06892131,-0.00159802,-9.813851,0,0,41.09188,1,1,1000,1000,4
243403,302344014,0,1.811754,1.608304,0.04049833,1.000002,1.000001,1.000002,0,0,37.65718,1,1,999,999,0
352271,423303944,0,1.555558,-1.863513,0.07642579,-0.4175577,-0.0039857,-9.874397,0,0,40.09369,1,1,1000,1000,0
190879,243904066,0,-0.07360481,2.448147,0.2182322,1.000002,1.000001,1.000002,0,0,36.07798,1,1,999,999,2
118027,162903979,0,1.317741,-2.297285,0.05785595,-4.700731,-0.2424297,-8.619654,0,0,33.31247,1,1,1000,1000,1
18637,51983365,0,2.274255,-1.244858,0.06905544,-0.02084663,0.03267426,-10.30378,0,0,28.08407,1,1,1000,1000,0
283106,346423875,0,1.645383,1.875578,0.03565365,-0.5414063,-0.02646094,-10.09136,0,0,38.66057,1,1,1000,1000,0
306523,372503439,0,0.00329995,0.00329422,-0.01289397,-0.01719673,-0.00693898,-9.817657,0,0,39.1884,1,1,999,999,3
424925,504023310,0,0.2377696,-2.340936,0.03572021,-0.00199119,-0.04147623,-9.817077,0,0,41.25113,1,1,1000,1000,4
379383,453423558,0,2.604948,-0.5562446,0.05467151,-1.744071,-4.021041,-8.683968,0,0,40.56236,1,1,1000,1000,4
422462,501263581,0,2.021103,-1.180194,0.04445963,0.01422949,-0.0140026,-9.835007,0,0,41.21648,1,1,1000,1000,4
248047,307463632,0,0.9433039,-1.706913,0.05033198,-1.448978,-0.02198215,-10.09583,0,0,37.78144,1,1,999,999,0
333099,402023293,0,0.8387372,-2.693295,-0.1811494,-1.708192,-0.580822,-9.84101,0,0,39.73303,1,1,999,999,0
264097,325303993,0,2.125085,-1.083842,0.0553661,-0.159103,0.04177288,-9.888855,0,0,38.19819,1,1,1000,1000,0
212438,267863645,0,1.808546,3.546848,-0.4173657,1.000002,1.000001,1.000002,0,0,36.76284,1,1,999,999,2
73919,113343811,0,1.369761,1.950322,-0.01410768,-0.8516327,0.00887837,-10.0558,0,0,31.21305,1,1,1000,1000,1
334279,403343598,0,1.596732,2.592742,0.1555394,-3.253152,-0.113824,-9.680959,0,0,39.75615,1,1,1000,1000,0
38218,73743824,0,2.198887,1.217207,-1.061119,-0.8995571,0.0768882,-10.21197,0,0,29.2676,1,1,1000,1000,0
91165,132703564,0,-3.056124,-1.175519,0.05706826,-5.490203,0.3734249,-7.689444,0,0,32.07467,1,1,1000,1000,1
38480,74023712,0,1.412903,-1.832531,-0.4067777,-1.113882,-0.2163313,-10.06847,0,0,29.28228,1,1,1000,1000,0
380382,454543943,0,-0.6483566,2.582297,0.05371944,-1.736039,-4.200252,-8.972457,0,0,40.5789,1,1,999,999,4
19982,53463606,0,-1.317114,-2.188103,0.1289634,0.03650802,0.01732006,-9.803199,0,0,28.16732,1,1,1000,1000,0
1997,15703716,0,0.00021482,0.00020432,0.00021568,-0.00130172,-0.00148541,-9.816887,0,0,25.90954,1,1,1000,1000,0
293772,358263304,0,4.521554,-1.253326,-1.009991,-0.1168254,-1.350908,-9.652663,0,0,38.90589,1,1,1000,1000,3
182891,235023453,0,1.354676,-1.992262,0.0480426,1.000002,1.000001,1.000002,0,0,35.80994,1,1,1000,1000,0
54969,92303897,0,-0.1159682,2.26398,0.04973223,-0.1519376,-0.01235118,-9.810032,0,0,30.21141,1,1,1000,1000,0
221971,278463570,0,1.003255,-3.778204,0.08790545,1.000002,1.000001,1.000002,0,0,37.04881,1,1,1000,1000,2
357642,429264059,0,2.331018,0.4270532,0.0633454,-0.2147251,0.05498489,-9.884553,0,0,40.1902,1,1,999,999,0
275899,338423743,0,-1.780775,1.658809,0.0005969,-0.9447902,-0.02034017,-9.877044,0,0,38.48924,1,1,1000,1000,0
90551,132023836,0,0.6708592,-3.146117,0.08233963,-5.735446,0.5361153,-8.114878,0,0,32.04534,1,1,1000,1000,1
217287,273263984,0,-2.316524,2.002368,0.08130772,1.000002,1.000001,1.000002,0,0,36.90978,1,1,1000,1000,2
119113,164143483,0,0.6458567,2.625865,0.04788842,-4.755169,-0.4050502,-8.726231,0,0,33.36068,1,1,1000,1000,1
98811,141303456,0,1.111595,-2.657379,0.05558051,-5.847413,0.127316,-7.853477,0,0,32.43994,1,1,1000,1000,1
384835,459463641,0,2.628178,0.1877143,0.04087284,-1.820488,-4.173128,-8.689322,0,0,40.65081,1,1,999,999,4
165777,216023556,0,-2.277781,-0.728129,0.1067309,-0.2524072,-0.03769324,-9.845628,0,0,35.20908,1,1,1000,1000,0
260293,321064023,0,1.654538,1.085264,0.03346832,-0.1655298,0.00109151,-9.759986,0,0,38.10138,1,1,999,999,0
127059,172983279,0,-2.723037,0.1287817,0.1912891,-3.620594,-0.1897432,-9.141233,0,0,33.69865,1,1,1000,1000,0
76054,115743684,0,2.224489,0.8215016,0.04573691,-0.6378343,0.05849935,-9.879567,0,0,31.32291,1,1,1000,1000,1
329231,397743339,0,0.00287672,0.00285263,-0.01737164,0.00208287,-0.00703641,-9.817687,0,0,39.65735,1,1,999,999,3
58491,96223995,0,-1.552955,1.774872,0.07666902,-0.5571045,-0.05764283,-9.797057,0,0,30.4034,1,1,1000,1000,0
127521,173503904,0,-0.3044832,-2.658114,0.2430806,-4.006586,0.07932737,-8.749385,0,0,33.71822,1,1,1000,1000,0
347786,418343429,0,0.6373734,-2.378081,0.070765,-0.7500037,0.00355351,-9.949807,0,0,40.0119,1,1,1000,1000,0
261656,322583415,0,-2.374454,0.9213876,0.05532912,-1.361418,-0.05581905,-9.752356,0,0,38.13624,1,1,999,999,0
407097,484223733,0,2.238316,-0.5947053,0.04796921,0.01136326,-0.00704789,-9.802997,0,0,40.99535,1,1,999,999,4
297378,362343338,0,0.00336076,0.0033899,-0.00293879,-0.02381162,-0.02088904,-9.817273,0,0,38.98821,1,1,999,999,3
26510,60744026,0,-1.523981,1.710336,0.03945577,-0.02417301,-0.06117234,-9.310177,0,0,28.57088,1,1,1000,1000,0
128077,174143648,0,2.48265,0.9276233,-0.05648811,-4.4908,0.05905741,-8.963899,0,0,33.74226,1,1,1000,1000,0
375477,449063636,0,2.187251,-1.625325,0.06304979,-1.114773,-2.613364,-9.393547,0,0,40.4974,1,1,999,999,4
116959,161703626,0,0.2739626,-2.617855,0.05660405,-4.645164,-0.2830362,-8.516782,0,0,33.26563,1,1,1000,1000,1
329013,397463451,0,0.00292145,0.00291185,-0.01735225,-0.04171149,0.02849023,-9.817457,0,0,39.65236,1,1,999,999,3
294406,358983849,0,-0.3473836,-0.2122236,0.1474687,-2.146753,0.2095844,-8.351413,0,0,38.9205,1,1,999,999,3
118483,163423771,0,2.582791,0.3418829,0.04967731,-4.807058,-0.3215452,-8.76082,0,0,33.33271,1,1,1000,1000,1
59555,97383531,0,2.030856,-1.70375,0.03803647,-0.1529651,0.0125302,-9.764985,0,0,30.45973,1,1,1000,1000,0
30897,65583756,0,-1.511329,-1.7531,0.03373784,0.02867616,-0.02028739,-9.810279,0,0,28.83381,1,1,1000,1000,0
142460,190103928,0,-1.76085,-2.037814,0.04150119,-4.783983,-0.09126244,-8.272176,0,0,34.32552,1,1,1000,1000,0
222731,279344051,0,-1.500373,-2.502341,-0.4182808,1.000002,1.000001,1.000002,0,0,37.07209,1,1,999,999,2
246166,305383631,0,1.383024,-1.831514,0.04066766,-0.3150438,0.05064386,-9.350108,0,0,37.73122,1,1,1000,1000,0
398534,474703376,0,1.929488,-1.455313,0.04744736,0.01407332,0.05053936,-9.792297,0,0,40.86623,1,1,999,999,4
425345,504463967,0,-0.2585126,0.7198107,0.01632241,-0.06949452,0.3045198,-13.29227,0,0,41.25662,1,1,999,999,4
189523,242383841,0,3.255871,0.1552345,-0.06324099,1.000002,1.000001,1.000002,0,0,36.03266,1,1,999,999,2
87584,128663514,0,2.252027,1.701005,0.07649229,-5.186695,0.1236688,-8.743019,0,0,31.89943,1,1,1000,1000,1
228096,285303333,0,2.075171,0.8793333,-0.2913016,1.000002,1.000001,1.000002,0,0,37.22804,1,1,1000,1000,2
375599,449223572,0,-2.665203,-0.3314513,0.05252661,-1.164681,-2.859172,-9.663387,0,0,40.4998,1,1,999,999,4
178129,229743899,0,-2.978272,0.5964807,0.09390819,1.000002,1.000001,1.000002,0,0,35.64677,1,1,999,999,0
212381,267823661,0,2.182717,-1.282955,-0.3797309,1.000002,1.000001,1.000002,0,0,36.76174,1,1,999,999,2
9066,24543512,0,0.0003298,0.00032239,0.00035892,-0.00192239,-0.00169434,-9.817436,0,0,26.46386,1,1,999,999,0
218850,275023280,0,4.036278,-0.6275873,-0.07975518,1.000002,1.000001,1.000002,0,0,36.95711,1,1,1000,1000,2
1694,15343860,0,0.00016472,0.00014985,0.00022841,-0.00052282,-0.00019193,-9.816688,0,0,25.88661,1,1,1000,1000,0
397373,473423888,0,2.332343,-0.1704449,0.0371019,0.00796041,0.04723151,-9.803141,0,0,40.84856,1,1,1000,1000,4
147863,196104027,0,-2.376295,-1.221598,0.04809472,-4.751984,-0.09473842,-8.278694,0,0,34.53689,1,1,1000,1000,0
217507,273543872,0,1.275764,2.080818,-0.05757971,1.000002,1.000001,1.000002,0,0,36.91733,1,1,1000,1000,2
292285,356623960,0,3.207072,-3.603441,-2.802385,-1.850217,-0.4923555,-8.450638,0,0,38.87249,1,1,1000,1000,3
228019,285223365,0,-0.1958624,2.085777,-0.3139111,1.000002,1.000001,1.000002,0,0,37.22597,1,1,1000,1000,2
380739,454943783,0,-1.150974,2.407085,0.05577309,-1.724583,-4.255133,-8.869246,0,0,40.58479,1,1,999,999,4
377940,451823365,0,0.9546318,-2.487414,0.05933917,-1.662353,-3.901717,-8.588165,0,0,40.53863,1,1,1000,1000,4
419761,498263948,0,-1.481826,-1.780765,0.03581906,-0.03881425,-0.0256041,-9.77343,0,0,41.17845,1,1,1000,1000,4
437125,518944006,0,0.00111617,0.00115556,0.00112169,-0.00064551,-0.00114294,-9.817703,0,0,41.43301,1,1,1000,1000,4
93733,135584078,0,-3.19803,0.800018,0.07067327,-5.665688,0.4717583,-7.320942,0,0,32.19816,1,1,1000,1000,1
26931,61183850,0,0.3360991,-2.306892,0.03793119,0.07257247,-0.00822737,-9.474435,0,0,28.59496,1,1,1000,1000,0
381779,456063335,0,-1.699439,-2.057342,0.03923531,-1.703394,-4.07943,-8.679413,0,0,40.60124,1,1,1000,1000,4
346405,416784053,0,2.387681,1.119819,0.00079273,-1.406502,0.00663145,-9.840425,0,0,39.98589,1,1,1000,1000,0
16035,49103684,0,0.00072475,0.00065259,0.00071772,0.00459153,-0.00156072,-9.816339,0,0,27.9209,1,1,1000,1000,0
5507,20063638,0,0.00027817,0.00030185,0.00030076,0.0004009,-0.00044124,-9.816967,0,0,26.18498,1,1,1000,1000,0
347508,418023557,0,-2.223922,-0.7471266,0.08119833,-0.9245958,-0.01837789,-9.840686,0,0,40.00658,1,1,1000,1000,0
201391,255583559,0,-3.025092,-0.4051004,-0.08667437,1.000002,1.000001,1.000002,0,0,36.41867,1,1,1000,1000,2
302296,367823645,0,0.0033519,0.00333722,-0.00648047,-0.00599094,-0.02484608,-9.817659,0,0,39.09703,1,1,999,999,3
169821,220503430,0,-0.2044109,2.360304,0.04242804,-0.02240965,0.02383202,-9.811895,0,0,35.3542,1,1,1000,1000,0
92685,134423709,0,1.271018,-2.899439,0.07200868,-6.005257,0.6200654,-8.051372,0,0,32.14856,1,1,1000,1000,1
210660,265903596,0,-1.961808,-2.240844,-0.5363016,1.000002,1.000001,1.000002,0,0,36.70885,1,1,999,999,2
69290,108183376,0,-1.306641,-2.140562,-0.00397744,-0.6422772,-0.00847216,-10.17866,0,0,30.97387,1,1,1000,1000,1
31256,65983596,0,-2.023786,-1.26672,0.03293306,0.03401793,-0.01942648,-9.827921,0,0,28.85535,1,1,1000,1000,0
345426,415703652,0,1.823946,1.166458,0.2118903,-0.3210142,0.03663393,-10.00791,0,0,39.96781,1,1,999,999,0
103538,146623827,0,2.470947,1.109386,0.04161814,-5.405499,-0.1816893,-8.512348,0,0,32.66071,1,1,1000,1000,1
163776,213783619,0,1.019602,2.350301,0.4099087,-1.366459,0.04615586,-9.884007,0,0,35.1357,1,1,1000,1000,0
241869,300623869,0,-0.2475218,-2.471431,-0.9115953,1.000002,1.000001,1.000002,0,0,37.61497,1,1,1000,1000,2
9366,24903368,0,0.00039377,0.00032095,0.00029535,-0.0007789,-0.00250924,-9.817908,0,0,26.48609,1,1,1000,1000,0
180066,231863884,0,2.273942,-1.428557,0.05693704,1.000002,1.000001,1.000002,0,0,35.71263,1,1,1000,1000,0
58229,95943274,0,-2.237964,-0.669866,0.05629073,-0.6797549,-0.0566782,-9.901365,0,0,30.38977,1,1,1000,1000,0
186660,239223439,0,-1.204187,1.960863,0.1055202,1.000002,1.000001,1.000002,0,0,35.93771,1,1,999,999,0
291453,355663511,0,-0.02153591,-0.2485199,0.00338998,0.483351,-2.476622,-8.60984,0,0,38.85285,1,1,999,999,3
194854,248343956,0,-1.463195,-2.685801,0.2551278,1.000002,1.000001,1.000002,0,0,36.20905,1,1,1000,1000,2
52098,89143495,0,-0.4887804,-1.873086,-0.02937623,-1.443512,-0.0231923,-9.664285,0,0,30.05482,1,1,1000,1000,0
242691,301543501,0,2.600404,1.004209,-0.4558123,1.000002,1.000001,1.000002,0,0,37.63758,1,1,999,999,0
158561,207983440,0,-0.6605122,2.579048,-0.2624221,-4.605124,-0.1861631,-8.969481,0,0,34.94313,1,1,1000,1000,0
293158,357583576,0,0.00405129,-0.03246268,-0.00490228,0.1332809,-0.8822946,-8.905719,0,0,38.89206,1,1,999,999,3
111601,155663543,0,-2.294526,1.302281,0.04219771,-4.606346,-0.2962395,-8.681009,0,0,33.02698,1,1,1000,1000,1
343885,413983507,0,0.270666,-2.352108,0.03291479,-0.7724899,-0.07882398,-9.766978,0,0,39.93887,1,1,1000,1000,0
170621,221383911,0,2.216425,0.8771749,0.0382604,-0.0051896,-0.0193128,-9.814833,0,0,35.38245,1,1,1000,1000,0
24408,58383304,0,1.089745,-2.302313,0.0516837,0.01038351,0.01517132,-9.679867,0,0,28.44112,1,1,1000,1000,0
169720,220383478,0,2.24466,0.9108748,0.04007039,-0.01425146,0.03163423,-9.781609,0,0,35.35034,1,1,1000,1000,0
5525,20103622,0,0.0002142,0.00016723,0.00031646,-0.00153693,-0.00154869,-9.81669,0,0,26.18749,1,1,1000,1000,0
362189,434343693,0,-1.143669,2.077698,0.04032894,-0.1437016,0.00404927,-9.758371,0,0,40.27096,1,1,999,999,0
224227,280983395,0,-1.51019,1.587648,-0.3676171,1.000002,1.000001,1.000002,0,0,37.11531,1,1,999,999,2
317427,384623589,0,0.00309664,0.00308049,-0.01711358,0.00305578,0.02874726,-9.817795,0,0,39.41851,1,1,999,999,3
230601,288063895,0,-0.6364893,-3.578984,-0.1628591,1.000002,1.000001,1.000002,0,0,37.29922,1,1,1000,1000,2
285165,348703796,0,1.240514,1.993571,0.04189292,-0.784047,-0.01345974,-9.889175,0,0,38.70857,1,1,1000,1000,0
275179,337624063,0,-0.8703066,2.691362,0.1251018,-1.374599,0.00130946,-9.793353,0,0,38.47186,1,1,999,999,0
309843,376183633,0,0.00323081,0.00322243,-0.01295283,-0.02319382,-0.00115832,-9.817097,0,0,39.25925,1,1,1000,1000,3
398011,474143600,0,0.05444506,2.430137,0.03859632,-0.00267769,0.01937536,-9.766091,0,0,40.85851,1,1,999,999,4
194755,248224004,0,-2.998639,0.7097226,0.2062538,1.000002,1.000001,1.000002,0,0,36.20554,1,1,1000,1000,2
219010,275184049,0,-2.417079,-0.1330732,-0.1997332,1.000002,1.000001,1.000002,0,0,36.9614,1,1,1000,1000,2
197007,250743829,0,1.109512,-3.089407,-0.0328903,1.000002,1.000001,1.000002,0,0,36.2791,1,1,1000,1000,2
91976,133624029,0,1.351161,-2.988838,0.07792949,-5.960318,0.6030676,-8.032558,0,0,32.11425,1,1,1000,1000,1
78627,118623365,0,0.7787533,-2.016463,0.01247166,-1.171657,0.06089042,-9.82578,0,0,31.45358,1,1,1000,1000,1
226502,283544037,0,1.181137,3.80138,0.2555805,1.000002,1.000001,1.000002,0,0,37.18231,1,1,1000,1000,2
1928,15623748,0,0.00019581,0.00015505,0.00020709,0.00066201,-0.00046092,-9.817172,0,0,25.90444,1,1,1000,1000,0
183351,235544078,0,2.600055,2.193887,0.04030855,1.000002,1.000001,1.000002,0,0,35.82586,1,1,1000,1000,0
228561,285823958,0,-0.5395902,2.237647,-0.6137948,1.000002,1.000001,1.000002,0,0,37.2415,1,1,1000,1000,2
239505,297984092,0,2.061712,-0.5367748,-1.556117,1.000002,1.000001,1.000002,0,0,37.54969,1,1,1000,1000,2
219112,275304001,0,0.5697973,-2.892918,-0.2392961,1.000002,1.000001,1.000002,0,0,36.96461,1,1,1000,1000,2
152695,201463549,0,2.113428,1.713447,0.0288706,-5.039416,-0.09277141,-8.73885,0,0,34.72217,1,1,1000,1000,0
191676,244783714,0,2.209943,0.6205698,-0.1191237,1.000002,1.000001,1.000002,0,0,36.10411,1,1,999,999,2
94622,136583678,0,-3.038557,0.4237492,0.06443401,-5.805306,0.4544298,-7.276454,0,0,32.24076,1,1,1000,1000,1
251749,311583650,0,-2.049364,1.111161,0.1270191,-0.4666907,-0.04219073,-10.0747,0,0,37.8799,1,1,999,999,0
243543,302463966,0,-1.442225,2.589655,0.1374934,1.000002,1.000001,1.000002,0,0,37.66012,1,1,999,999,0
337863,407303680,0,0.03976075,3.014224,0.05724388,-4.816098,-0.08107381,-9.037922,0,0,39.82492,1,1,999,999,0
121687,167023997,0,2.674778,0.4374199,0.07509895,-4.899509,-0.3109132,-8.7451,0,0,33.47189,1,1,999,999,1
139957,187343366,0,2.626239,0.6316422,0.00692245,-4.984835,-0.07092104,-8.661089,0,0,34.22686,1,1,999,999,0
198329,252184086,0,3.044291,1.325824,0.1897971,1.000002,1.000001,1.000002,0,0,36.32086,1,1,999,999,2
379001,452983734,0,-2.664467,-0.2508313,0.04737407,-1.626583,-4.12879,-8.917346,0,0,40.55585,1,1,999,999,4
126095,171943695,0,2.264719,0.9565592,-0.2352257,-2.68612,0.3887307,-9.63823,0,0,33.6594,1,1,999,999,0
92310,133983885,0,-2.942525,1.136901,0.07860845,-5.643681,0.4568289,-7.472389,0,0,32.1297,1,1,1000,1000,1
186030,238503727,0,2.151726,1.139405,-0.04337954,1.000002,1.000001,1.000002,0,0,35.91593,1,1,1000,1000,0
323190,391023528,0,0.0030266,0.00302249,-0.01730884,0.04716605,0.03673707,-9.817645,0,0,39.53632,1,1,1000,1000,3
386835,461703578,0,-1.796687,-2.00946,0.03821445,-1.681769,-4.158444,-8.670987,0,0,40.68317,1,1,1000,1000,4
308502,374703392,0,0.00325815,0.00318124,-0.01288168,-0.02497755,-0.012485,-9.816646,0,0,39.23087,1,1,999,999,3
322165,389863992,0,0.00299411,0.0030171,-0.01722783,0.01395885,-0.0110051,-9.817797,0,0,39.51516,1,1,999,999,3
177304,228823434,0,-0.7999158,2.705751,0.04370506,-1.985324,0.0172167,-9.603231,0,0,35.61804,1,1,1000,1000,0
60915,98903756,0,2.041874,1.616789,0.00448312,-1.362577,0.01773706,-9.9493,0,0,30.53321,1,1,1000,1000,0
156239,205423631,0,-1.491109,-2.166377,0.04527132,-4.751705,-0.0526116,-8.229839,0,0,34.85695,1,1,1000,1000,0
313363,380103731,0,0.00313501,0.00313924,-0.01302175,0.00085288,0.00619024,-9.817646,0,0,39.33378,1,1,999,999,3
252749,312704035,0,-0.1450077,-1.86524,0.00939884,-1.416527,-0.05558396,-9.800444,0,0,37.90643,1,1,999,999,0
373179,446543811,0,-2.233714,0.3133688,0.04913489,-0.2091178,-0.525615,-9.965921,0,0,40.45942,1,1,1000,1000,4
412957,490743624,0,-0.03524211,-2.337541,0.04189825,0.05431893,0.03550644,-9.735697,0,0,41.08145,1,1,999,999,4
99602,142183937,0,-1.775924,-2.231825,0.04568837,-5.584493,0.08341762,-7.717076,0,0,32.47673,1,1,1000,1000,1
420063,498623804,0,-0.4415282,2.298413,0.03699335,0.00727317,-0.02968564,-9.836501,0,0,41.18304,1,1,1000,1000,4
36775,72143631,0,2.345396,0.2546853,0.04176817,0.00439281,0.00015154,-9.891125,0,0,29.18347,1,1,1000,1000,0
235189,293183513,0,2.059837,-2.056673,-0.01061373,1.000002,1.000001,1.000002,0,0,37.42953,1,1,1000,1000,2
400054,476383537,0,1.424962,-1.66966,0.04559086,0.02777606,0.05327556,-9.319553,0,0,40.88932,1,1,1000,1000,4
399274,475543873,0,-1.799553,1.542049,0.05247936,-0.00139953,-0.06395829,-9.780398,0,0,40.87779,1,1,999,999,4
304640,370423438,0,0.0032376,0.00333206,-0.00904997,0.00337129,0.01965326,-9.817832,0,0,39.14797,1,1,999,999,3
316446,383544021,0,0.00312983,0.00306684,-0.01705264,-0.02660578,-0.01276894,-9.817308,0,0,39.39838,1,1,1000,1000,3
77658,117543797,0,2.402828,0.1437767,0.2075747,-0.2811215,0.02931872,-9.887751,0,0,31.40472,1,1,1000,1000,1
65441,103943406,0,-1.62315,2.199698,0.03652254,-1.387484,-0.0231452,-9.737837,0,0,30.77422,1,1,1000,1000,0
368809,441663264,0,0.5963448,2.326519,0.03607959,-0.0047461,0.01571214,-9.782691,0,0,40.38495,1,1,1000,1000,0
379301,453343590,0,1.439353,2.103657,0.04723683,-1.681252,-4.173476,-8.884209,0,0,40.56118,1,1,1000,1000,4
3828,17983637,0,0.00030276,0.00019695,0.000252,-0.00030803,-0.00042118,-9.818879,0,0,26.05407,1,1,1000,1000,0
233589,291423384,0,-1.261419,3.00369,-0.03329546,1.000002,1.000001,1.000002,0,0,37.38498,1,1,999,999,2
72716,111983522,0,-2.254339,-0.8186871,0.02927846,-0.2553464,-0.00513128,-9.803626,0,0,31.15041,1,1,1000,1000,1
123918,169503838,0,0.5833457,-2.593104,1.327863,0.1002702,-0.1120606,-10.94462,0,0,33.56679,1,1,1000,1000,0
72474,111743618,0,1.6459,1.743124,0.02573337,-0.2823859,-0.00163583,-9.865484,0,0,31.13933,1,1,1000,1000,1
304918,370743310,0,0.00330786,0.00325569,-0.0097485,-0.00717658,0.01338335,-9.817191,0,0,39.15421,1,1,999,999,3
397713,473783744,0,-1.690199,-1.558681,0.03582951,-0.01010774,0.0141187,-9.802832,0,0,40.85354,1,1,1000,1000,4
164417,214503331,0,-1.990952,1.26389,-0.08590423,-0.8881271,0.04461068,-9.864347,0,0,35.15935,1,1,999,999,0
78171,118103573,0,-2.105419,-1.239444,0.2761715,-0.7262727,-0.01159388,-10.08267,0,0,31.43008,1,1,1000,1000,1
189961,242863649,0,1.723158,-1.543798,-0.4861998,1.000002,1.000001,1.000002,0,0,36.047,1,1,999,999,2
88752,129983819,0,-1.583567,2.459417,0.09295189,-5.284704,0.2107339,-8.533964,0,0,31.95695,1,1,1000,1000,1
228660,285943910,0,-2.308599,0.1808215,-0.6128507,1.000002,1.000001,1.000002,0,0,37.2446,1,1,999,999,2
202541,256863880,0,-3.126375,-0.4565674,-0.3119471,1.000002,1.000001,1.000002,0,0,36.45521,1,1,999,999,2
43687,79783907,0,-1.608863,1.831896,0.03456756,-1.40169,0.03098164,-9.761581,0,0,29.58118,1,1,1000,1000,0
90427,131863900,0,1.267257,2.833903,0.07465586,-5.782363,0.3343628,-8.408609,0,0,32.03843,1,1,1000,1000,1
325411,393463385,0,0.00298895,0.0029562,-0.01731152,-0.03318082,0.00106776,-9.817636,0,0,39.58058,1,1,1000,1000,3
44705,80943443,0,2.06982,-1.081517,0.05324277,-0.6437858,0.02157868,-9.967247,0,0,29.64068,1,1,1000,1000,0
48735,85383333,0,0.5710841,2.324255,0.03659999,-1.003483,-0.04142499,-9.883753,0,0,29.86633,1,1,1000,1000,0
22504,56263319,0,-1.444601,-2.138017,0.02417511,0.02071074,0.01348535,-9.854799,0,0,28.32369,1,1,1000,1000,0
227844,285023445,0,0.09305202,2.137719,-0.2784775,1.000002,1.000001,1.000002,0,0,37.22078,1,1,1000,1000,2
416879,495063562,0,-1.421257,1.920413,0.04904731,-0.01268865,-0.01744655,-9.827198,0,0,41.13747,1,1,999,999,4
20542,54103350,0,2.152753,1.383332,-0.0054259,-0.06431846,-0.00284476,-9.866795,0,0,28.20319,1,1,1000,1000,0
175225,226503529,0,1.634409,1.426589,-0.01872053,-0.2161022,0.01730347,-9.880913,0,0,35.5452,1,1,1000,1000,0
209841,264983964,0,-3.517668,1.268812,0.2481777,1.000002,1.000001,1.000002,0,0,36.68338,1,1,1000,1000,2
223325,279983795,0,1.08615,3.260882,0.0725138,1.000002,1.000001,1.000002,0,0,37.08899,1,1,1000,1000,2
173343,224423528,0,-1.800585,1.619121,-0.2021961,-1.300018,-0.1376744,-9.898023,0,0,35.47942,1,1,999,999,0
195570,249143636,0,-2.331592,-1.487729,0.2757104,1.000002,1.000001,1.000002,0,0,36.23247,1,1,999,999,2
62819,101023741,0,0.2883166,2.303996,0.02636001,-0.5650684,0.00946204,-9.870271,0,0,30.63508,1,1,1000,1000,0
281024,344103970,0,-0.374021,-2.298111,0.04352039,-0.5806438,-0.01035155,-9.933655,0,0,38.61135,1,1,999,999,0
359486,431344060,0,2.306932,1.20629,0.1053124,-1.403146,-0.02463581,-9.731447,0,0,40.22343,1,1,1000,1000,0
233769,291623304,0,-1.260573,2.874694,-0.07243911,1.000002,1.000001,1.000002,0,0,37.39006,1,1,999,999,2
115911,160544090,0,0.8115556,2.444464,0.04094994,-4.717829,-0.3750401,-8.829479,0,0,33.22017,1,1,1000,1000,1
180549,232423660,0,-2.022743,-1.468588,0.07217908,1.000002,1.000001,1.000002,0,0,35.72995,1,1,999,999,0
50899,87784039,0,1.501562,1.334209,0.168987,-0.1967821,-0.03192525,-10.03177,0,0,29.98691,1,1,1000,1000,0
263916,325104073,0,2.074224,-1.1708,0.05638449,-0.2837839,0.01829159,-9.827382,0,0,38.19365,1,1,1000,1000,0
325332,393383417,0,0.00299726,0.00296141,-0.01733362,0.01072358,-0.01585868,-9.817663,0,0,39.57913,1,1,1000,1000,3
234046,291944009,0,-3.260066,-0.2506263,-0.1301464,1.000002,1.000001,1.000002,0,0,37.39817,1,1,999,999,2
362068,434183757,0,-0.6109374,-2.305797,0.02817683,-0.1837369,-0.04076746,-9.854,0,0,40.26844,1,1,999,999,0
124636,170303518,0,-0.3294653,-2.525502,1.107031,-0.6076864,-0.950358,-10.18974,0,0,33.59724,1,1,1000,1000,0
188648,241423392,0,-2.821329,1.446265,-0.01478151,1.000002,1.000001,1.000002,0,0,36.00392,1,1,999,999,2
318229,385504070,0,0.00308746,0.00306969,-0.01713442,0.01543061,0.0161396,-9.816997,0,0,39.43486,1,1,999,999,3
195016,248503892,0,-0.6664445,2.679821,0.3100323,1.000002,1.000001,1.000002,0,0,36.21374,1,1,1000,1000,2
230698,288183847,0,2.874224,-2.033535,-0.1146152,1.000002,1.000001,1.000002,0,0,37.3023,1,1,1000,1000,2
344624,414824004,0,0.01548894,2.325544,0.04559209,-0.3790508,0.02350282,-9.948754,0,0,39.95303,1,1,999,999,0
302817,368383421,0,0.00334862,0.00332931,-0.00698133,0.0108532,0.01642974,-9.817071,0,0,39.10804,1,1,1000,1000,3
314604,381464020,0,0.0031038,0.00315059,-0.01310811,0.00141365,0.00263901,-9.817956,0,0,39.35941,1,1,1000,1000,3
176103,227463978,0,0.08507127,-2.597167,0.08448969,-0.7641591,-0.03376988,-10.07812,0,0,35.57541,1,1,999,999,0
180169,231983836,0,1.397144,1.499186,0.06362895,1.000002,1.000001,1.000002,0,0,35.71634,1,1,999,999,0
110216,154143318,0,0.2183657,2.658799,0.05087318,-4.72027,-0.2840889,-8.752163,0,0,32.96616,1,1,1000,1000,1
432394,513103843,0,0.00128857,0.00128815,0.00133866,-0.00076862,-0.00049442,-9.816858,0,0,41.36289,1,1,1000,1000,4
17756,51023749,0,-1.200617,2.100717,0.02745353,-0.00609973,-0.02251285,-9.845612,0,0,28.02986,1,1,1000,1000,0
66604,105223727,0,1.684565,1.683387,0.03807402,-1.04431,0.00890265,-9.941117,0,0,30.83479,1,1,1000,1000,0
50460,87303398,0,-1.506606,1.732718,0.04668221,-0.2024436,0.01323359,-9.844662,0,0,29.96287,1,1,1000,1000,0
337963,407423632,0,-2.879191,0.5549288,0.06988477,-4.609985,-0.06862678,-8.557363,0,0,39.82698,1,1,999,999,0
168199,218703317,0,-0.7449651,2.234079,0.03798568,-0.04499014,0.00752931,-9.87426,0,0,35.29615,1,1,1000,1000,0
146941,195063610,0,1.800959,2.052678,0.03428893,-5.037322,-0.09379127,-8.642229,0,0,34.50056,1,1,1000,1000,0
102193,145103602,0,0.9217552,-2.566149,0.05386917,-5.515737,-0.08892839,-8.117176,0,0,32.59803,1,1,1000,1000,1
122220,167623757,0,1.519941,1.989637,0.09138648,-5.217392,-0.4106964,-8.935686,0,0,33.49492,1,1,999,999,1
281824,344983618,0,-1.923972,-1.396517,0.03675893,-0.3054526,0.00468329,-9.81299,0,0,38.63007,1,1,999,999,0
223425,280103747,0,-2.954228,2.589679,0.1122806,1.000002,1.000001,1.000002,0,0,37.09215,1,1,1000,1000,2
343284,413343763,0,-0.922075,2.175652,0.05865566,-1.45988,-0.04126994,-9.306259,0,0,39.92807,1,1,1000,1000,0
213551,269143966,0,1.132615,1.944764,-0.01787603,1.000002,1.000001,1.000002,0,0,36.79791,1,1,999,999,2
122814,168263501,0,-1.621623,2.3575,0.6136741,-3.01404,0.3031951,-10.90634,0,0,33.51944,1,1,1000,1000,0
134361,181103363,0,-1.011003,-2.443969,0.04360602,-4.76271,0.02414192,-8.310877,0,0,34.00043,1,1,1000,1000,0
382860,457263688,0,0.3122107,-2.671314,0.05745286,-1.66984,-3.99292,-8.57766,0,0,40.6188,1,1,999,999,4
123018,168503405,0,1.004125,-2.277503,0.6071803,-1.792356,0.439347,-11.98472,0,0,33.52861,1,1,1000,1000,0
376600,450343957,0,1.611103,-2.19903,0.06390324,-1.469165,-3.568234,-8.874668,0,0,40.51657,1,1,999,999,4
438257,520303462,0,0.00115577,0.00110971,0.00113585,-0.00076536,-0.00080776,-9.817425,0,0,41.44914,1,1,999,999,4
398552,474743360,0,-0.7497452,2.292316,0.04157408,-0.04574427,-0.01130461,-9.793097,0,0,40.86678,1,1,999,999,4
411317,488903527,0,0.8976622,2.100875,0.0341419,-0.0341715,-0.02258402,-9.87302,0,0,41.05734,1,1,1000,1000,4
276519,339103471,0,0.03458041,2.407781,0.05421398,-0.6083996,0.01073034,-9.867756,0,0,38.50399,1,1,999,999,0
170822,221623815,0,-1.607565,0.3085069,0.04836618,0.01744039,-0.07071923,-9.211821,0,0,35.39015,1,1,1000,1000,0
250203,309863505,0,2.231449,0.8480908,0.04539972,-0.3530548,0.04354758,-9.99017,0,0,37.83896,1,1,999,999,0
407716,484903461,0,0.9698312,-2.111915,0.0373157,-0.00829103,0.01207207,-9.712499,0,0,41.00442,1,1,999,999,4
16235,49343588,0,0.00070423,0.00065111,0.00072711,-0.00078527,0.00198205,-9.817697,0,0,27.93456,1,1,1000,1000,0
5135,19623814,0,0.00023221,0.00014397,0.00017694,-0.00077686,-0.00045054,-9.817525,0,0,26.15736,1,1,999,999,0
90707,132183772,0,-2.422693,2.259346,0.08734541,-5.568194,0.3329705,-7.97431,0,0,32.05225,1,1,1000,1000,1
130681,177023329,0,2.056536,-1.582615,0.06282673,-4.931477,-0.08727194,-8.611885,0,0,33.84982,1,1,999,999,0
110396,154344071,0,0.3196424,2.655917,0.05831202,-4.792563,-0.2442826,-8.7925,0,0,32.97419,1,1,1000,1000,1
354423,425703817,0,1.976334,1.30323,0.1411739,-0.8796439,0.04255519,-9.928925,0,0,40.13278,1,1,999,999,0
371260,444383842,0,-1.110996,-2.092747,0.02743351,-0.02607388,0.03860328,-9.825703,0,0,40.42661,1,1,999,999,0
102983,145984083,0,-1.894801,-1.991811,0.03591174,-5.116462,-0.06912147,-8.028984,0,0,32.63435,1,1,1000,1000,1
20340,53863446,0,-0.7431203,-2.372071,0.03956937,0.01215951,0.0696595,-9.851584,0,0,28.18975,1,1,1000,1000,0
87445,128543562,0,2.080865,-1.849238,0.09669178,-5.155766,0.1997169,-8.495068,0,0,31.89419,1,1,1000,1000,1
295016,359663577,0,0.4272116,-4.408628,-0.2058514,11.96204,16.03141,-22.29933,0,0,38.93427,1,1,999,999,3
280861,343944034,0,1.819779,1.635795,0.04006704,-0.7333647,0.04314689,-9.94375,0,0,38.60794,1,1,1000,1000,0
30836,65543772,0,0.08131375,2.294571,0.03775831,-0.00846078,0.01938504,-9.825591,0,0,28.83165,1,1,1000,1000,0
222072,278583522,0,4.340866,-1.064475,-0.01007563,1.000002,1.000001,1.000002,0,0,37.05199,1,1,1000,1000,2
23405,57263752,0,-1.598555,-1.924417,0.04813176,0.04300364,0.01773987,-9.869006,0,0,28.37919,1,1,1000,1000,0
254470,314623267,0,1.819229,1.57781,0.0253259,-0.4845516,-0.00685635,-9.957179,0,0,37.95168,1,1,999,999,0
362989,435223341,0,0.8395815,2.287692,0.2106365,-0.4839238,-0.01159269,-10.18757,0,0,40.28481,1,1,999,999,0
346946,417383813,0,1.925612,1.529994,-0.01125735,-1.414677,-0.02567504,-9.799414,0,0,39.99591,1,1,999,999,0
51980,88983559,0,2.028742,1.835008,-0.02035698,-1.357517,0.00828416,-9.920609,0,0,30.04684,1,1,1000,1000,0
298049,363063883,0,0.00344085,0.00337332,-0.00325361,-0.00991559,-0.00149995,-9.81729,0,0,39.00262,1,1,1000,1000,3
407015,484143765,0,1.501162,1.879567,0.03919305,-0.02651653,-0.00113777,-9.854372,0,0,40.99429,1,1,999,999,4
378382,452304006,0,-1.523985,-2.199091,0.04211566,-1.575284,-3.957875,-8.641487,0,0,40.54576,1,1,999,999,4
138703,185943926,0,2.358491,1.177113,0.04789242,-5.056037,-0.1002151,-8.657076,0,0,34.17647,1,1,1000,1000,0
216688,272623407,0,1.779275,-0.9889888,0.2381389,1.000002,1.000001,1.000002,0,0,36.89251,1,1,999,999,2
116681,161383754,0,-1.923741,-1.732364,0.04482135,-4.579793,-0.3226858,-8.425858,0,0,33.25311,1,1,1000,1000,1
5594,20183590,0,0.000197,0.00025499,0.00025894,-0.00099499,-0.00044624,-9.817995,0,0,26.1925,1,1,1000,1000,0
313524,380263667,0,0.00315297,0.00316524,-0.01304387,0.02374121,0.0136454,-9.816866,0,0,39.3368,1,1,999,999,3
54761,92063993,0,1.484897,-1.878308,0.05655058,-0.2130957,-0.00020808,-9.862928,0,0,30.19958,1,1,1000,1000,0
92586,134303757,0,-2.197902,-2.320532,0.05635222,-5.745488,0.5020924,-7.559823,0,0,32.14342,1,1,1000,1000,1
228801,286063862,0,-1.104049,-2.084472,-0.5310504,1.000002,1.000001,1.000002,0,0,37.2477,1,1,999,999,2
206136,260863946,0,1.1372,0.2277507,-0.7306272,1.000002,1.000001,1.000002,0,0,36.56838,1,1,1000,1000,2
8337,23623880,0,0.000327,0.00031697,0.00040415,7.63E-05,-0.00184021,-9.817377,0,0,26.40693,1,1,1000,1000,0
311644,378183666,0,0.00313661,0.00320776,-0.01299696,-0.00070907,-0.02980655,-9.817417,0,0,39.2974,1,1,1000,1000,3
179086,230783483,0,1.174633,0.8929214,0.06720381,1.000002,1.000001,1.000002,0,0,35.67913,1,1,1000,1000,0
387817,462783979,0,-2.488169,-0.9731158,0.04190443,-1.668781,-4.107196,-8.753557,0,0,40.69868,1,1,999,999,4
427007,506344048,0,0.00132568,0.00127826,0.00159958,-0.00035655,-0.00096786,-9.816301,0,0,41.28001,1,1,1000,1000,4
258771,319383862,0,1.181519,2.090268,0.02230144,-0.5234827,0.06596347,-9.946651,0,0,38.06263,1,1,999,999,0
49017,85704038,0,-1.930506,1.363636,0.04611753,-0.7542692,0.01862277,-9.834391,0,0,29.88246,1,1,1000,1000,0
131941,178423602,0,1.630558,-2.104844,0.05969038,-4.901451,-0.02415224,-8.53551,0,0,33.90173,1,1,1000,1000,0
138427,185624054,0,1.530766,-2.189832,0.05908182,-4.955419,-0.00339503,-8.48152,0,0,34.16492,1,1,1000,1000,0
429797,509823489,0,0.00123854,0.00121549,0.00133887,-0.00118213,-0.00059306,-9.817189,0,0,41.32291,1,1,999,999,4
114924,159423705,0,2.544133,0.0711492,0.06373922,-4.707052,-0.2520005,-8.752788,0,0,33.17611,1,1,1000,1000,1
381460,455743463,0,-2.219563,1.430643,0.05884382,-1.663123,-4.257515,-8.891184,0,0,40.59655,1,1,999,999,4
416699,494863642,0,-1.15006,2.051232,0.05000637,-0.01133574,-0.02055464,-9.800407,0,0,41.1349,1,1,999,999,4
76293,115983588,0,-2.173161,0.8372048,0.05621822,-0.5564733,0.03183009,-9.788299,0,0,31.33385,1,1,1000,1000,1
148782,197143611,0,2.540301,-1.299196,0.0220449,-5.027984,-0.03152392,-8.61233,0,0,34.5731,1,1,999,999,0
87168,128223690,0,-1.052983,-2.482394,0.08019482,-4.89974,0.1177642,-8.285297,0,0,31.8802,1,1,1000,1000,1
83334,123903752,0,-2.613824,-0.3530816,0.1021728,-2.732949,-0.04848874,-9.586237,0,0,31.68991,1,1,1000,1000,1
359184,430983371,0,-2.043178,1.758941,0.09969163,-1.175235,-0.03726107,-9.889158,0,0,40.2177,1,1,999,999,0
44789,81023411,0,-0.4531507,-2.287253,0.04420638,-0.5788167,0.01373446,-9.85981,0,0,29.64478,1,1,1000,1000,0
175944,227304042,0,1.707378,1.849226,0.09743708,-0.5793644,-0.00600445,-10.19046,0,0,35.57038,1,1,999,999,0
65525,104023374,0,1.233721,2.552558,0.01699834,-1.493439,-0.00740451,-9.723114,0,0,30.77802,1,1,1000,1000,0
349648,420383446,0,-1.757096,1.72417,-0.2258537,-0.5990335,-0.01734075,-10.34608,0,0,40.0457,1,1,999,999,0
323966,391864025,0,0.00299389,0.00295626,-0.01726492,-0.02831788,0.01443023,-9.817222,0,0,39.5516,1,1,1000,1000,3
410256,487743991,0,-2.340885,0.1469436,0.03903813,-0.01894902,-0.01557378,-9.834322,0,0,41.04206,1,1,999,999,4
312122,378743442,0,0.00319521,0.00319139,-0.01299961,0.00152041,-0.00450236,-9.818953,0,0,39.30804,1,1,1000,1000,3
144999,192943625,0,2.510457,-0.9249651,0.00762824,-4.994212,-0.06120531,-8.595545,0,0,34.4261,1,1,1000,1000,0
270234,332143756,0,2.452887,0.1500844,0.0303733,-1.153349,-0.00242271,-10.02598,0,0,38.35152,1,1,999,999,0
106479,149943332,0,0.09445335,2.686096,0.05405501,-4.942731,-0.2028256,-8.74786,0,0,32.79651,1,1,1000,1000,1
129420,175623889,0,2.220942,-1.31997,0.1090339,-4.784441,0.06010329,-8.638083,0,0,33.79766,1,1,1000,1000,0
373619,447023619,0,-0.8825837,2.244171,0.04487541,-0.3835087,-0.8442791,-10.02589,0,0,40.46667,1,1,999,999,4
71275,110383329,0,-1.802498,-1.451638,0.02428215,-0.7385566,-0.0132736,-9.870305,0,0,31.07635,1,1,1000,1000,1
204343,258863913,0,0.1887131,-2.606178,-0.5558561,1.000002,1.000001,1.000002,0,0,36.51198,1,1,1000,1000,2
296283,361103834,0,0.00345656,0.00343529,-0.00285724,-0.00932565,0.01687284,-9.828475,0,0,38.96331,1,1,1000,1000,3
416802,494983594,0,-2.275494,-0.5913575,0.03645592,0.01763541,-0.00649714,-9.852507,0,0,41.13644,1,1,999,999,4
433682,514744020,0,0.00122403,0.00121374,0.00124001,-0.00083747,-0.00084633,-9.816805,0,0,41.38272,1,1,999,999,4
140098,187463318,0,0.2718162,2.724836,-0.00233522,-4.985581,-0.08360253,-8.657187,0,0,34.23117,1,1,999,999,0
268154,329823851,0,-2.129465,-0.9264734,0.05457633,-0.3615705,-0.06757206,-9.793484,0,0,38.2999,1,1,999,999,0
77120,116944037,0,2.263525,0.8163201,0.03261734,-0.2945052,0.03228132,-9.845116,0,0,31.37751,1,1,1000,1000,1
33236,68183549,0,-2.278829,-0.7555373,0.03333112,0.03589107,-0.02709487,-9.847576,0,0,28.97331,1,1,1000,1000,0
146622,194743738,0,2.581458,-0.3442488,0.03712866,-5.019152,-0.07767893,-8.629048,0,0,34.48935,1,1,999,999,0
70655,109703601,0,0.4897138,-2.278255,0.04062471,-1.180513,0.01504172,-9.93709,0,0,31.04475,1,1,1000,1000,1
264475,325743817,0,-1.602318,1.44823,0.04670312,-0.1519376,-0.00238512,-9.612173,0,0,38.20816,1,1,1000,1000,0
381639,455943383,0,-2.359064,1.028634,0.05670962,-1.650611,-4.251425,-8.926043,0,0,40.59948,1,1,999,999,4
55307,92663753,0,0.9688172,-2.603815,-0.1173553,-0.09834083,-0.03295018,-9.644979,0,0,30.22915,1,1,1000,1000,0
400794,477224034,0,-1.148468,1.725483,0.0350966,0.03309307,0.01245404,-8.63311,0,0,40.90081,1,1,999,999,4
428779,508544001,0,0.00131755,0.00133043,0.00130889,-0.00146714,-0.00091916,-9.81781,0,0,41.30719,1,1,1000,1000,4
144442,192303881,0,-1.865651,-1.823011,-0.01162508,-4.747115,-0.09407537,-8.245326,0,0,34.40351,1,1,999,999,0
276701,339303391,0,-0.3637248,2.417872,0.06749448,-0.5203646,-0.0359267,-9.860643,0,0,38.50832,1,1,999,999,0
199790,253823430,0,-0.400591,-2.325109,-0.08993275,1.000002,1.000001,1.000002,0,0,36.36818,1,1,1000,1000,2
195552,249103652,0,-0.909635,3.301871,0.2899484,1.000002,1.000001,1.000002,0,0,36.2313,1,1,999,999,2
256791,317183909,0,2.401227,-0.4255035,0.03787309,-1.047355,-0.01056731,-10.08384,0,0,38.01157,1,1,999,999,0
52778,89864040,0,1.933427,-1.244843,0.06314836,-1.324732,-0.01636674,-9.893338,0,0,30.09064,1,1,1000,1000,0
386813,461663594,0,0.3538238,2.593032,0.04914504,-1.840608,-4.250619,-8.909753,0,0,40.68259,1,1,1000,1000,4
174342,225543913,0,-1.874316,-1.371874,0.1003128,-0.5289649,0.01874608,-9.856068,0,0,35.5149,1,1,1000,1000,0
230003,287423318,0,-0.6868057,3.506148,0.08689741,1.000002,1.000001,1.000002,0,0,37.28277,1,1,999,999,2
179268,230983403,0,1.54273,0.9993606,-0.08490932,1.000002,1.000001,1.000002,0,0,35.68534,1,1,1000,1000,0
240587,299183612,0,1.885587,1.27596,1.503807,1.000002,1.000001,1.000002,0,0,37.57943,1,1,999,999,2
326412,394583770,0,0.00301465,0.00295109,-0.01730251,0.00886024,0.03627096,-9.817848,0,0,39.60078,1,1,999,999,3
294878,359543625,0,3.287498,-5.733506,-9.892112,0.08280797,0.3860939,-5.923789,0,0,38.93184,1,1,999,999,3
103338,146383923,0,-1.285759,-2.348893,0.03838712,-5.181604,-0.08139331,-8.072655,0,0,32.65083,1,1,1000,1000,1
123297,168823277,0,2.785577,-0.3924551,0.6106201,-0.7258147,0.4607352,-11.81264,0,0,33.54085,1,1,1000,1000,0
136321,183263332,0,-0.3591845,2.631182,0.047745,-4.889964,-0.08269518,-8.699125,0,0,34.07935,1,1,1000,1000,0
218028,274103648,0,-0.9742849,-2.485167,-0.03513247,1.000002,1.000001,1.000002,0,0,36.9324,1,1,999,999,2
150844,199423532,0,-0.2255946,-2.713839,0.02716208,-4.78223,0.03845789,-8.360824,0,0,34.65205,1,1,999,999,0
320288,387783991,0,0.00306608,0.00297579,-0.01715124,-0.02165359,0.0025806,-9.817707,0,0,39.47699,1,1,999,999,3
396098,471983631,0,-2.233731,0.5864255,0.04456746,0.02997785,0.03336243,-9.836819,0,0,40.82858,1,1,1000,1000,4
314884,381783892,0,0.00311825,0.00315055,-0.01312428,-0.00570892,0.01338326,-9.817356,0,0,39.36542,1,1,1000,1000,3
378299,452224038,0,1.343145,-2.222776,0.06004397,-1.657452,-3.917693,-8.582207,0,0,40.54458,1,1,999,999,4
256272,316623300,0,-0.719367,2.323412,0.2104665,-0.5288544,-0.05118844,-10.16136,0,0,37.99852,1,1,999,999,0
166958,217343861,0,0.08396886,-2.40379,0.02509526,-0.00069358,-0.00264702,-9.982977,0,0,35.25206,1,1,999,999,0
183333,235503261,0,-1.879786,-2.073041,0.03877374,1.000002,1.000001,1.000002,0,0,35.82463,1,1,1000,1000,0
341101,410903906,0,-1.369209,-1.950967,0.1017014,-3.412764,-0.01224566,-8.943319,0,0,39.88665,1,1,999,999,0
200051,254103318,0,-2.280221,-0.5953854,-0.1553975,1.000002,1.000001,1.000002,0,0,36.37623,1,1,999,999,2
430182,510303297,0,0.00122028,0.00124831,0.00124994,-0.00122513,-0.00103962,-9.817337,0,0,41.32879,1,1,999,999,4
241244,299943308,0,-0.629553,-2.952077,0.1704357,1.000002,1.000001,1.000002,0,0,37.59821,1,1,1000,1000,2
285684,349263572,0,0.8364372,-2.231197,0.04799059,-0.4896108,-0.00187229,-9.917777,0,0,38.7203,1,1,999,999,0
84144,124823384,0,-0.4695859,-2.600341,0.03023999,-3.68848,-0.02671529,-8.889463,0,0,31.73067,1,1,1000,1000,1
223965,280703507,0,-3.418079,0.1172935,-0.2270151,1.000002,1.000001,1.000002,0,0,37.10795,1,1,1000,1000,2
68310,107103808,0,1.943793,-1.320981,0.04978604,-0.1798705,0.07925728,-9.867853,0,0,30.92328,1,1,1000,1000,1
30818,65503788,0,1.341219,-1.874093,0.04631795,0.02316474,-0.03741173,-9.805863,0,0,28.82949,1,1,1000,1000,0
363448,435743966,0,-2.385121,0.9167293,0.0672751,-0.9832113,-0.00859646,-10.20696,0,0,40.29298,1,1,999,999,0
212659,268143533,0,2.976302,1.085198,-0.4318056,1.000002,1.000001,1.000002,0,0,36.77052,1,1,1000,1000,2
28493,62943979,0,-1.070437,2.135958,0.04080776,-0.02618594,-0.01185857,-9.865216,0,0,28.69092,1,1,1000,1000,0
232614,290343816,0,-2.013859,0.3814286,-0.3397885,1.000002,1.000001,1.000002,0,0,37.35752,1,1,1000,1000,2
202722,257063800,0,-2.686529,-0.8831102,-0.2691387,1.000002,1.000001,1.000002,0,0,36.4609,1,1,999,999,2
59091,96863739,0,-0.2771242,-2.304265,0.02632849,-0.2713121,-0.01056102,-9.863838,0,0,30.4345,1,1,1000,1000,0
98712,141183504,0,-2.379549,-1.723555,0.04554808,-5.610295,0.07894288,-7.541954,0,0,32.43491,1,1,1000,1000,1
17454,50663893,0,0.2284294,-2.075926,0.00706995,0.0146649,0.01743777,-10.12899,0,0,28.00948,1,1,1000,1000,0
47392,83903925,0,-2.493335,0.7042004,0.05305849,-1.17269,-0.03313446,-10.03883,0,0,29.79148,1,1,1000,1000,0
332478,401343565,0,2.115716,-1.286236,0.421751,-1.103784,-0.7041196,-10.00165,0,0,39.72108,1,1,1000,1000,0
131400,177823842,0,2.247671,-1.346302,0.03084039,-4.967586,-0.03262183,-8.574644,0,0,33.87952,1,1,999,999,0
85467,126303625,0,-2.653174,0.6010148,0.07345278,-4.482858,-0.00381371,-8.568134,0,0,31.79597,1,1,1000,1000,1
433120,514023475,0,0.00120121,0.0012152,0.00121799,-0.00101381,-0.0021628,-9.819837,0,0,41.37403,1,1,1000,1000,4
304096,369823678,0,0.00330443,0.00332982,-0.0084023,0.0141915,-0.00807237,-9.816975,0,0,39.13625,1,1,999,999,3
432941,513783571,0,0.00122448,0.00119949,0.00123659,0.00013164,-0.00177523,-9.817936,0,0,41.37113,1,1,1000,1000,4
34316,69383902,0,-2.171234,-0.9229071,0.03861772,0.02155368,-0.04645671,-9.828112,0,0,29.03728,1,1,1000,1000,0
148601,196943691,0,2.337832,-0.9537457,0.06692458,-5.039379,-0.1564571,-8.643888,0,0,34.56615,1,1,999,999,0
60115,98023275,0,-0.5336014,2.201015,0.1941337,-0.4376881,-0.02789692,-10.30212,0,0,30.49071,1,1,1000,1000,0
212361,267783677,0,-0.9574257,2.294943,-0.3503693,1.000002,1.000001,1.000002,0,0,36.76064,1,1,999,999,2
246528,305783471,0,1.567186,-1.234064,0.01746459,-0.2547018,0.05655422,-8.302871,0,0,37.7409,1,1,1000,1000,0
123036,168543389,0,1.025901,2.723857,0.585858,-1.639441,0.4460838,-11.81692,0,0,33.53014,1,1,1000,1000,0
158859,208343296,0,1.845397,-1.393599,-0.146666,-4.175107,-0.1883151,-9.095678,0,0,34.9552,1,1,1000,1000,0
379902,453983334,0,-1.929424,-1.840309,0.04258168,-1.668562,-4.052292,-8.712665,0,0,40.57064,1,1,1000,1000,4
187187,239784048,0,2.530826,1.016408,-0.09285806,1.000002,1.000001,1.000002,0,0,35.95461,1,1,999,999,0
237450,295703338,0,1.99044,2.095478,1.555648,1.000002,1.000001,1.000002,0,0,37.49285,1,1,1000,1000,2
52721,89824056,0,-2.390448,0.0848854,0.04934177,-1.289395,-0.07402293,-9.748809,0,0,30.08866,1,1,1000,1000,0
189421,242263889,0,2.495618,-3.049951,0.0498504,1.000002,1.000001,1.000002,0,0,36.02908,1,1,999,999,2
437015,518784070,0,0.00118326,0.00114033,0.00109038,-0.00074041,0.0008012,-9.818184,0,0,41.43111,1,1,1000,1000,4
33315,68263517,0,-1.461931,1.845322,0.04655335,-0.00695135,-0.04101056,-9.844262,0,0,28.97758,1,1,1000,1000,0
149205,197583435,0,-1.739209,1.963534,-0.03320014,-4.798336,-0.1200399,-8.635789,0,0,34.58838,1,1,999,999,0
53523,90703704,0,-0.1245779,2.356386,0.05167514,-0.7646019,0.01983922,-9.953641,0,0,30.13233,1,1,1000,1000,0
200249,254344055,0,2.953393,-0.7153997,-0.1192873,1.000002,1.000001,1.000002,0,0,36.38313,1,1,999,999,2
395480,471303903,0,-1.938738,-1.342204,0.02941069,0.0621127,0.1057492,-9.832083,0,0,40.81912,1,1,1000,1000,4
255732,316023540,0,0.02229697,1.6808,0.09439532,-0.1874999,-0.00602921,-9.576199,0,0,37.9845,1,1,999,999,0
342804,412783987,0,-1.180048,-1.856703,0.03900277,-2.170304,-0.07108988,-9.416222,0,0,39.91859,1,1,999,999,0
99524,142103969,0,1.554879,-2.338163,0.06508238,-5.826715,0.09495045,-8.062399,0,0,32.47338,1,1,1000,1000,1
104484,147663411,0,-2.563141,0.8076625,0.1271755,-4.996909,-0.08309935,-8.297431,0,0,32.70341,1,1,1000,1000,1
379821,453903366,0,0.9588997,-2.479949,0.05393178,-1.69138,-3.985775,-8.587115,0,0,40.56946,1,1,1000,1000,4
246447,305703503,0,1.830609,1.078023,0.00535815,-0.2456537,0.04707672,-8.498196,0,0,37.73897,1,1,1000,1000,0
239323,297783339,0,2.279908,-0.5946099,-1.472629,1.000002,1.000001,1.000002,0,0,37.54472,1,1,999,999,2
101103,143863265,0,-2.427022,1.222383,0.055023,-5.429316,-0.03258028,-7.983202,0,0,32.54666,1,1,1000,1000,1
11767,27903834,0,0.00041013,0.00039777,0.00035509,-0.00133672,-0.00015369,-9.817584,0,0,26.67031,1,1,1000,1000,0
297697,362664043,0,0.00342243,0.00339062,-0.00302471,0.01376242,0.01351355,-9.816998,0,0,38.99462,1,1,999,999,3
167998,218463413,0,2.031145,-1.268175,0.05331416,-0.0372414,0.04289554,-9.926718,0,0,35.28839,1,1,1000,1000,0
47054,83544069,0,1.384418,-2.148217,0.06548683,-0.7803087,-0.00637078,-9.984715,0,0,29.77322,1,1,1000,1000,0
394680,470423422,0,-0.6904231,-2.293401,0.031544,0.07542006,0.00088652,-9.884718,0,0,40.80684,1,1,999,999,4
100158,142823681,0,2.727096,-0.0022952,0.04908043,-5.849443,0.01706603,-8.258787,0,0,32.50341,1,1,1000,1000,1
124555,170223550,0,2.179503,-1.200873,1.165287,-0.4633771,-0.8900683,-10.12956,0,0,33.5942,1,1,1000,1000,0
320387,387903943,0,0.00309404,0.00304246,-0.01719218,0.00830715,-0.00608265,-9.81758,0,0,39.4792,1,1,999,999,3
215595,271383903,0,-1.691247,-0.4745893,-0.3446382,1.000002,1.000001,1.000002,0,0,36.85892,1,1,999,999,2
86637,127623930,0,-0.1814556,-2.699624,0.06517185,-4.802668,0.08118305,-8.286595,0,0,31.85394,1,1,1000,1000,1
5384,19943686,0,0.00028261,0.00028889,0.00023014,-2.80E-05,-7.09E-05,-9.817308,0,0,26.17745,1,1,1000,1000,0
317328,384503637,0,0.00306973,0.00302134,-0.01718647,-0.01703436,0.02112455,-9.817299,0,0,39.41628,1,1,999,999,3
32718,67623773,0,2.282077,-0.1130307,0.04722413,0.01272242,0.01216236,-9.824498,0,0,28.94336,1,1,1000,1000,0
4099,18343493,0,0.00028502,0.00022445,0.0002411,-0.00110567,-0.00174917,-9.817256,0,0,26.0768,1,1,1000,1000,0
41885,77783874,0,-2.075212,0.568051,-0.04076758,-0.1800946,-0.00737921,-9.990463,0,0,29.47804,1,1,1000,1000,0
310303,376703425,0,0.00323913,0.00320106,-0.01294673,-0.00801294,-0.03298282,-9.818804,0,0,39.2692,1,1,1000,1000,3
178985,230663531,0,0.955482,-0.9208341,0.1937481,1.000002,1.000001,1.000002,0,0,35.6754,1,1,1000,1000,0
52881,89983992,0,1.755183,1.67738,0.06086733,-1.246579,-0.02484257,-9.846245,0,0,30.09661,1,1,1000,1000,0
130598,176943361,0,2.037652,1.608937,0.04231918,-4.8982,-0.08341396,-8.777082,0,0,33.84685,1,1,999,999,0
219397,275623873,0,2.837782,0.6708838,-0.3265696,1.000002,1.000001,1.000002,0,0,36.97318,1,1,1000,1000,2
79672,119783734,0,-1.495107,1.751275,0.09596914,-0.8929983,-0.01137152,-9.863157,0,0,31.50586,1,1,1000,1000,1
359845,431743900,0,2.120568,1.156553,0.04269639,-1.210523,0.0565917,-9.826576,0,0,40.2298,1,1,1000,1000,0
48493,85143429,0,1.027639,-2.07785,0.04315813,-1.096077,0.04355887,-9.911575,0,0,29.85422,1,1,1000,1000,0
120341,165503772,0,1.133303,-2.320192,0.06243348,-4.731718,-0.2756599,-8.50992,0,0,33.41333,1,1,1000,1000,1
107785,151383589,0,-2.089838,-1.658681,0.03408039,-4.721355,-0.1647874,-8.332587,0,0,32.85494,1,1,1000,1000,1
262853,323943704,0,0.72261,2.239956,0.04212768,-0.6971362,-0.03964933,-9.901627,0,0,38.16728,1,1,999,999,0
257611,318103541,0,0.01557053,2.440675,0.03677474,-1.213757,0.01152562,-9.837324,0,0,38.03297,1,1,1000,1000,0
265895,327304026,0,1.699583,2.28636,0.0934939,-1.301703,-0.02520166,-10.1166,0,0,38.24339,1,1,999,999,0
55688,93103577,0,0.887309,2.213302,-0.306348,-0.4427657,-0.00105288,-10.22738,0,0,30.2508,1,1,1000,1000,0
318745,386063846,0,0.00306925,0.0029909,-0.01713997,-0.0188864,-0.00986188,-9.816912,0,0,39.44524,1,1,1000,1000,3
437088,518864038,0,0.00120444,0.00118767,0.00116572,-0.00115899,-0.00050383,-9.817807,0,0,41.43206,1,1,1000,1000,4
142200,189824040,0,1.127361,-2.478509,0.05191246,-4.906229,-0.03128333,-8.490662,0,0,34.31556,1,1,999,999,0
312803,379463987,0,0.00310618,0.00314722,-0.01303425,-0.00498685,0.01876254,-9.816979,0,0,39.32168,1,1,999,999,3
296974,361863530,0,0.00340806,0.0034032,-0.00274826,0.0066965,-0.0114215,-9.817123,0,0,38.97858,1,1,1000,1000,3
29533,64063531,0,-2.304476,0.6727166,0.0460232,-0.03638816,0.00369546,-9.88046,0,0,28.75169,1,1,1000,1000,0
241948,300703837,0,-2.234583,-0.5815831,-0.8739424,1.000002,1.000001,1.000002,0,0,37.61694,1,1,1000,1000,0
127136,173064080,0,-0.62499,2.707215,0.2453513,-3.778635,-0.2427593,-9.1631,0,0,33.70166,1,1,1000,1000,0
64984,103423614,0,1.717439,1.708914,0.06177725,-0.8659979,0.01285603,-9.984524,0,0,30.74954,1,1,1000,1000,0
55848,93263513,0,0.8612909,-2.400544,-0.2305559,-0.5628256,0.02097163,-10.13133,0,0,30.25866,1,1,1000,1000,0
252005,311863538,0,0.1144281,2.443203,0.08192383,-0.7273353,-0.00829336,-10.1429,0,0,37.88654,1,1,999,999,0
191319,244383874,0,1.974596,1.159393,0.04499482,1.000002,1.000001,1.000002,0,0,36.09225,1,1,999,999,2
4007,18223541,0,0.00023783,0.00031464,0.00026297,-0.00044705,-0.00086087,-9.817781,0,0,26.06922,1,1,1000,1000,0
331995,400783789,0,-0.5502846,2.477149,0.8922428,-0.3791777,-0.6655662,-10.29076,0,0,39.71121,1,1,999,999,0
204826,259423689,0,-2.864047,1.816273,0.00185074,1.000002,1.000001,1.000002,0,0,36.52781,1,1,999,999,2
197811,251623477,0,-2.794144,0.1329716,-0.136035,1.000002,1.000001,1.000002,0,0,36.30465,1,1,999,999,2
152281,201023725,0,-0.3838013,-2.588761,0.05073228,-4.805464,-0.04524107,-8.32845,0,0,34.70709,1,1,1000,1000,0
73517,112864003,0,-1.583463,1.679811,-0.07669392,-0.3932857,-0.0041994,-10.19877,0,0,31.19098,1,1,1000,1000,1
189903,242823665,0,-1.347265,0.9522834,-0.4833111,1.000002,1.000001,1.000002,0,0,36.0458,1,1,999,999,2
396573,472543407,0,1.822153,1.542824,0.0359717,-0.00384258,0.04477552,-9.843555,0,0,40.83636,1,1,999,999,4
127857,173863760,0,-0.8967653,2.467254,0.05841578,-4.247165,-0.00822696,-8.974529,0,0,33.73175,1,1,1000,1000,0
422843,501703405,0,-1.533249,1.764462,0.04888885,-0.02941166,-0.00747569,-9.76616,0,0,41.22202,1,1,1000,1000,4
332113,400943725,0,1.697187,-1.986558,0.8990266,-0.5433083,-0.6781491,-10.0881,0,0,39.71404,1,1,999,999,0
53501,90663720,0,1.586743,-1.685837,0.06252734,-0.7470038,0.00278552,-9.898585,0,0,30.13035,1,1,1000,1000,0
21523,55183751,0,1.696753,-1.863244,0.08374793,0.02091933,0.01536109,-9.904149,0,0,28.26355,1,1,1000,1000,0
174121,225264025,0,0.5873522,-2.358745,0.3040676,-0.6641812,0.0145856,-9.912073,0,0,35.50604,1,1,1000,1000,0
360907,432903436,0,0.4968514,-2.341157,0.05674187,-0.5490773,0.00793233,-9.923667,0,0,40.24821,1,1,999,999,0
386556,461383706,0,-2.152941,1.759402,0.0584566,-1.706241,-4.27013,-8.892191,0,0,40.67856,1,1,1000,1000,4
215955,271783743,0,-2.482344,-0.5204169,-0.3679776,1.000002,1.000001,1.000002,0,0,36.86977,1,1,999,999,2
321208,388823575,0,0.00303603,0.0030556,-0.01721899,-0.00079534,-0.02115254,-9.816617,0,0,39.49611,1,1,1000,1000,3
200771,254903831,0,0.00935257,-1.28356,-0.1739878,1.000002,1.000001,1.000002,0,0,36.3992,1,1,1000,1000,2
272817,334983453,0,-1.465835,-1.901732,0.02651185,-0.2597921,-0.02659783,-9.808116,0,0,38.41416,1,1,1000,1000,0
369814,442783649,0,-2.294926,-0.3559088,0.04371595,0.01731079,0.02627324,-9.878391,0,0,40.40215,1,1,999,999,0
2639,16503396,0,0.00020858,0.00014252,0.00028046,-0.00149213,-0.00043043,-9.817325,0,0,25.96038,1,1,999,999,0
94463,136423742,0,2.460469,-1.845303,0.07367373,-6.199256,0.5949995,-7.897604,0,0,32.23396,1,1,1000,1000,1
19721,53183718,0,1.966743,-1.553771,0.1521046,-0.03238849,0.04690347,-10.01272,0,0,28.1516,1,1,1000,1000,0
110735,154703927,0,1.609343,-2.045739,0.0700479,-4.738265,-0.1879736,-8.532576,0,0,32.98861,1,1,1000,1000,1
319569,386983478,0,0.00310707,0.00306965,-0.01716302,0.02510397,-0.0141357,-9.817974,0,0,39.46225,1,1,999,999,3
427971,507503584,0,0.00136319,0.00126662,0.00135509,-0.00067817,-0.00221756,-9.817619,0,0,41.29436,1,1,999,999,4
128699,174823376,0,2.058602,-1.563092,0.04746306,-4.615757,-0.08701251,-8.676738,0,0,33.76775,1,1,1000,1000,0
110176,154063350,0,-2.425543,0.9188673,0.05657505,-4.610192,-0.2832578,-8.577762,0,0,32.96296,1,1,1000,1000,1
162643,212543282,0,0.8890646,-2.259855,-1.311505,-0.7599534,0.02439114,-10.10246,0,0,35.09484,1,1,999,999,0
93754,135624062,0,2.110423,-2.406323,0.07393721,-6.156178,0.5895925,-7.883551,0,0,32.19987,1,1,1000,1000,1
244083,303063726,0,-2.183609,2.208463,0.2000551,1.000002,1.000001,1.000002,0,0,37.67479,1,1,1000,1000,0
124357,169983646,0,-2.592648,-0.07360489,1.299715,-0.1278378,-0.7811539,-10.51436,0,0,33.58507,1,1,1000,1000,0
98357,140783664,0,-2.629908,-1.119773,0.05415432,-5.643691,0.1092933,-7.461589,0,0,32.41814,1,1,1000,1000,1
101481,144303922,0,1.764862,-2.077685,0.0582454,-5.591343,-0.00400467,-8.170863,0,0,32.56491,1,1,1000,1000,1
68107,106863904,0,-2.353666,-0.2269657,0.03724841,-0.2631199,-0.05682424,-9.849691,0,0,30.91202,1,1,1000,1000,0
320405,387943927,0,0.00305445,0.00303835,-0.01719842,0.00083439,-0.01327837,-9.817534,0,0,39.47994,1,1,999,999,3
57854,95503450,0,1.053288,2.135252,-0.00117361,-0.9812915,-0.0097973,-9.949287,0,0,30.36832,1,1,1000,1000,0
224304,281063363,0,1.179515,1.171168,-0.3970049,1.000002,1.000001,1.000002,0,0,37.11742,1,1,999,999,2
133659,180343667,0,2.484584,0.9277421,0.04300521,-5.025193,-0.00173213,-8.7003,0,0,33.97253,1,1,1000,1000,0
432061,512664019,0,0.00123991,0.00118,0.00129668,-0.00050633,0.00018728,-9.818031,0,0,41.35756,1,1,999,999,4
325352,393423401,0,0.00302341,0.00289465,-0.01730997,0.01931601,0.00808203,-9.817506,0,0,39.57986,1,1,1000,1000,3
208524,263543707,0,3.853516,-0.9550442,-0.2297591,1.000002,1.000001,1.000002,0,0,36.64337,1,1,1000,1000,2
230544,288023911,0,-1.132728,2.585824,-0.1566097,1.000002,1.000001,1.000002,0,0,37.29819,1,1,1000,1000,2
335320,404463983,0,-2.925275,-0.4953752,-0.00702296,-3.948066,0.09795941,-8.799089,0,0,39.77569,1,1,999,999,0
259333,320023606,0,-1.325411,-1.588275,0.03368543,-0.2523643,-0.03063512,-9.276039,0,0,38.07742,1,1,1000,1000,0
309242,375543889,0,0.003241,0.00323243,-0.01291654,0.0176029,-0.00547541,-9.817797,0,0,39.24699,1,1,999,999,3
166015,216263460,0,2.297478,-0.4484803,0.06770582,-0.1702556,0.02638671,-9.890117,0,0,35.21691,1,1,1000,1000,0
155059,204103326,0,-2.642318,-0.2539117,0.08724385,-4.768181,-0.08560003,-8.359889,0,0,34.81222,1,1,999,999,0
311382,377903778,0,0.00319057,0.00322305,-0.01298514,0.01768557,0.0018333,-9.81644,0,0,39.29208,1,1,999,999,3
371558,444743698,0,-0.6738311,2.226042,0.04825347,-0.05818179,-0.03457884,-9.882252,0,0,40.43209,1,1,999,999,0
110100,153983382,0,-1.688909,-2.001935,0.03502677,-4.579818,-0.1316532,-8.365792,0,0,32.95975,1,1,1000,1000,1
61357,99383564,0,1.417702,-1.379377,0.00568935,-1.542724,0.01809385,-9.700178,0,0,30.55634,1,1,1000,1000,0
80838,121104039,0,-2.375179,-0.5318185,0.01596762,-0.3959005,-0.0299757,-9.827127,0,0,31.5651,1,1,1000,1000,1
122633,168063581,0,-1.829523,2.003618,0.5380036,-3.993673,0.03066852,-10.19802,0,0,33.51178,1,1,1000,1000,0
77359,117183941,0,-2.19541,0.3155905,0.04547938,-0.2359746,-0.02803938,-9.892705,0,0,31.3884,1,1,1000,1000,1
152898,201703453,0,-3.030194,-0.6078695,0.0453719,-4.697564,-0.1375182,-8.368377,0,0,34.73039,1,1,1000,1000,0
288869,352823814,0,4.568159,-6.025117,-34.90306,0.2263853,-0.796344,-8.783341,0,0,38.79438,1,1,999,999,3
103714,146823747,0,2.602002,0.7614667,0.04110592,-5.34799,-0.1548055,-8.517057,0,0,32.66893,1,1,1000,1000,1
386991,461863514,0,-0.06528002,2.665325,0.05672428,-1.754432,-4.299117,-8.915791,0,0,40.68547,1,1,1000,1000,4
120951,166183500,0,-2.099651,-1.678471,0.04657463,-4.623582,-0.3025392,-8.32726,0,0,33.43956,1,1,1000,1000,1
51622,88583719,0,1.812139,1.508107,0.09175858,-0.8654427,-0.02296419,-10.02708,0,0,30.02689,1,1,1000,1000,0
30796,65463804,0,-2.294024,0.6462143,0.04739746,-0.02991832,0.01123415,-9.829413,0,0,28.82734,1,1,1000,1000,0
22445,56223335,0,-0.1527438,2.560355,0.03392649,-0.01554455,-0.02069197,-9.91732,0,0,28.32147,1,1,1000,1000,0
210637,265863612,0,-0.3279592,1.476589,-0.5224821,1.000002,1.000001,1.000002,0,0,36.70774,1,1,1000,1000,2
331837,400623853,0,-1.792889,-2.327613,0.7583936,-0.1933175,-0.4773048,-10.67104,0,0,39.70839,1,1,999,999,0
116265,160943930,0,0.1188753,2.647249,0.04707386,-4.661723,-0.432825,-8.850718,0,0,33.23586,1,1,1000,1000,1
101322,144143986,0,-0.1027954,2.864614,0.04680892,-5.53584,-0.1250933,-8.35728,0,0,32.55828,1,1,1000,1000,1
334001,403023726,0,2.629079,-1.22301,0.2050782,-2.893131,-0.1905073,-9.625039,0,0,39.75056,1,1,1000,1000,0
106285,149703428,0,1.544496,-2.108039,0.075969,-4.994734,-0.1276915,-8.463022,0,0,32.78674,1,1,1000,1000,1
81197,121503879,0,-2.267221,-0.6625854,0.03249869,-0.356171,-0.01437197,-9.780437,0,0,31.583,1,1,1000,1000,1
186227,238743631,0,-2.181672,-0.1631918,0.08098713,1.000002,1.000001,1.000002,0,0,35.92319,1,1,1000,1000,0
304878,370663342,0,0.00329688,0.00330637,-0.00958604,-0.00156705,-0.06732004,-9.818343,0,0,39.15265,1,1,999,999,3
319686,387143414,0,0.00305906,0.00304467,-0.01710781,-0.01936872,0.00722953,-9.817915,0,0,39.4652,1,1,999,999,3
163173,213143875,0,1.43071,-1.397455,-0.1801088,-1.281421,-0.1291547,-9.912001,0,0,35.11463,1,1,1000,1000,0
343803,413903539,0,2.265381,-0.5560601,0.04121164,-0.8905802,0.02240645,-9.774464,0,0,39.93752,1,1,1000,1000,0
65504,103983390,0,0.2624339,-1.975694,0.02439104,-1.399667,0.02052035,-9.699598,0,0,30.77612,1,1,1000,1000,0
263934,325144057,0,-0.9128642,2.18899,0.04741021,-0.2794239,0.01465643,-9.781245,0,0,38.19456,1,1,1000,1000,0
73877,113263843,0,-1.464528,1.93442,-0.01949274,-0.8048767,-0.06069724,-10.16374,0,0,31.20938,1,1,1000,1000,1
320728,388263799,0,0.0029958,0.0030391,-0.01722714,0.01706653,0.00533224,-9.817993,0,0,39.48582,1,1,1000,1000,3
322088,389784024,0,0.00303096,0.00298271,-0.01723244,0.01782777,-0.00559367,-9.816536,0,0,39.51369,1,1,999,999,3
4309,18583397,0,0.00026047,0.0003124,0.00026275,-0.00011534,-0.00236781,-9.817297,0,0,26.09193,1,1,1000,1000,0
128779,174903344,0,-0.8608745,-2.489006,0.04962301,-4.490268,-0.06136172,-8.518423,0,0,33.77075,1,1,1000,1000,0
192676,245903266,0,0.4818881,2.555985,0.6379023,1.000002,1.000001,1.000002,0,0,36.13726,1,1,999,999,2
35398,70583422,0,-2.353797,-0.253071,0.04178198,-0.02945279,0.01468065,-9.826628,0,0,29.10101,1,1,1000,1000,0
149483,197903307,0,-2.498705,-0.9756031,-0.01230627,-4.738836,-0.1319694,-8.310158,0,0,34.59948,1,1,1000,1000,0
245522,304663919,0,-1.808281,-1.171427,0.06180197,1.000002,1.000001,1.000002,0,0,37.71375,1,1,999,999,0
371361,444503794,0,1.81148,-1.63104,0.0473886,-0.00966533,0.04092025,-9.782368,0,0,40.42844,1,1,999,999,0
5865,20543446,0,0.00029172,0.00024021,0.00029682,-0.00121971,-0.00082048,-9.817892,0,0,26.21506,1,1,1000,1000,0
96655,138863599,0,-1.32506,2.733371,0.0686109,-5.942469,0.1837265,-7.791107,0,0,32.33736,1,1,1000,1000,1
66787,105423647,0,1.999682,1.180977,0.03411781,-0.9166195,0.01826191,-9.939426,0,0,30.84423,1,1,1000,1000,0
36576,71903727,0,-1.171629,-1.946248,0.03231657,0.0087911,0.00439685,-9.817055,0,0,29.17081,1,1,1000,1000,0
74453,113943571,0,1.989515,1.911341,0.08907238,-1.479665,0.01951566,-9.838031,0,0,31.2406,1,1,1000,1000,1
315684,382663540,0,0.00313753,0.00312369,-0.01600791,-0.00996792,-0.00875321,-9.818231,0,0,39.38193,1,1,999,999,3
367572,440303808,0,-2.376031,0.09765098,0.04258467,-0.02801359,-0.04495513,-9.730237,0,0,40.36398,1,1,999,999,0
266632,328143690,0,-1.921201,-1.32106,0.02540612,-1.218952,-0.03922904,-9.857645,0,0,38.26228,1,1,1000,1000,0
12071,28263690,0,0.0003552,0.00036749,0.00044666,-0.0005849,-0.00099577,-9.817315,0,0,26.69229,1,1,1000,1000,0
427740,507223696,0,0.0013169,0.00127887,0.00135909,-0.0015302,0.00035923,-9.817225,0,0,41.2909,1,1,999,999,4
119647,164744076,0,0.751399,2.638596,0.04786197,-4.816544,-0.3138854,-8.813501,0,0,33.38394,1,1,1000,1000,1
95175,137223422,0,2.747168,-1.343043,0.06949411,-6.274119,0.4514472,-7.875785,0,0,32.26795,1,1,1000,1000,1
41806,77703906,0,-1.756035,-2.251737,-0.04617434,-0.1550159,-0.01669814,-9.827791,0,0,29.4739,1,1,1000,1000,0
263116,324223592,0,2.397576,0.3304652,0.0465135,-0.5661173,0.01758087,-9.919418,0,0,38.17366,1,1,999,999,0
176404,227823834,0,-1.319401,2.005255,0.04315541,-1.200384,-0.03694341,-10.19144,0,0,35.58671,1,1,999,999,0
242748,301583485,0,-2.202637,1.993673,-0.4691262,1.000002,1.000001,1.000002,0,0,37.63856,1,1,999,999,0
65582,104063358,0,-2.245542,-0.4348359,0.02034558,-1.481967,-0.0145674,-9.587807,0,0,30.77991,1,1,1000,1000,0
121843,167183933,0,-1.781055,-2.049267,0.07005891,-4.660165,-0.2370606,-8.362909,0,0,33.47803,1,1,999,999,1
360086,431983804,0,-2.425069,0.04473373,0.01909191,-1.065842,-0.02307984,-9.817953,0,0,40.23361,1,1,1000,1000,0
158301,207703552,0,-2.470427,0.640976,-0.2580018,-4.803957,-0.1530136,-8.62557,0,0,34.93374,1,1,999,999,0
389379,464543275,0,-1.349494,2.296279,0.05387475,-1.746229,-4.234384,-8.882483,0,0,40.72384,1,1,999,999,4
138844,186063878,0,-0.2682003,2.657472,0.05522653,-4.900815,-0.1101011,-8.73013,0,0,34.1808,1,1,1000,1000,0
379620,453663462,0,-2.014627,1.832186,0.06211859,-1.626075,-4.181563,-8.992514,0,0,40.56591,1,1,1000,1000,4
223983,280743491,0,1.212821,-2.227355,-0.2431619,1.000002,1.000001,1.000002,0,0,37.109,1,1,1000,1000,2
405536,482463604,0,0.9379649,2.079964,0.02487067,-0.01571287,0.00858408,-9.854259,0,0,40.97179,1,1,999,999,4
172523,223503896,0,0.3605806,3.008033,-0.0801415,-1.598699,0.4278921,-9.78856,0,0,35.45018,1,1,1000,1000,0
348226,418824070,0,-1.470182,-1.801244,0.0194317,-0.5157081,0.00140034,-9.833796,0,0,40.01987,1,1,1000,1000,0
160541,210183393,0,0.1110434,2.536497,-0.00117929,-1.798689,-0.04943921,-9.942713,0,0,35.01662,1,1,1000,1000,0
322830,390623688,0,0.00299772,0.00303892,-0.01722055,-0.04093442,-0.0246451,-9.816465,0,0,39.52903,1,1,999,999,3
49476,86223830,0,-1.849401,-1.44849,0.03368234,-0.527587,0.03465308,-9.861128,0,0,29.90864,1,1,1000,1000,0
307162,373223984,0,0.00328652,0.0032697,-0.0128891,-0.01522996,-0.00390114,-9.817462,0,0,39.20233,1,1,1000,1000,3
308942,375184033,0,0.00320226,0.0032547,-0.01292833,-0.00529608,0.01257055,-9.817176,0,0,39.24009,1,1,999,999,3
46872,83343316,0,1.549353,-1.976906,0.05997873,-0.5834649,-0.01131349,-9.971519,0,0,29.76307,1,1,1000,1000,0
90906,132423676,0,-0.02702466,-3.143414,0.06523668,-5.75997,0.4964117,-8.183775,0,0,32.0626,1,1,1000,1000,1
225918,282863476,0,-1.758125,2.982587,0.2021119,1.000002,1.000001,1.000002,0,0,37.16457,1,1,999,999,2
80816,121064055,0,1.578233,1.751413,0.00777404,-0.4377915,0.0285499,-9.833329,0,0,31.56331,1,1,1000,1000,1
243385,302304030,0,-0.898964,-2.708995,0.01796545,1.000002,1.000001,1.000002,0,0,37.65621,1,1,999,999,0
396377,472303503,0,-0.9755147,-2.153484,0.03748636,0.04939982,0.04709928,-9.857478,0,0,40.83303,1,1,999,999,4
396018,471903663,0,-1.363132,-1.929996,0.03702099,0.03915573,0.02096301,-9.837766,0,0,40.82747,1,1,1000,1000,4
431763,512303330,0,0.0012109,0.00121443,0.00121288,-0.00074274,-0.00026399,-9.816797,0,0,41.35318,1,1,999,999,4
50919,87824023,0,-2.295547,-1.349412,0.1915739,-0.1742267,-0.00955304,-10.06802,0,0,29.98891,1,1,1000,1000,0
346664,417063941,0,1.612749,-1.092356,-0.02180977,-1.505189,0.02185927,-9.67345,0,0,39.99057,1,1,999,999,0
85212,126023737,0,-0.7125511,-2.557805,0.06658395,-4.365997,-0.00818654,-8.489016,0,0,31.78364,1,1,1000,1000,1
260055,320823286,0,-0.5554583,-2.528056,0.04660671,-0.09849616,-0.00298694,-9.648567,0,0,38.09585,1,1,1000,1000,0
95945,138063919,0,-2.001264,2.270771,0.06118528,-5.88221,0.1867923,-7.623271,0,0,32.30355,1,1,1000,1000,1
336600,405903407,0,2.333802,1.625071,0.1105591,-4.6674,0.01406168,-8.755604,0,0,39.80071,1,1,999,999,0
70475,109503681,0,0.8081113,-2.051163,0.04876128,-1.300223,0.01184834,-9.870686,0,0,31.03545,1,1,1000,1000,1
252588,312543266,0,1.875802,2.155095,0.00509539,-1.429409,0.02370076,-9.932898,0,0,37.90265,1,1,999,999,0
253448,313463731,0,-1.995027,1.396264,0.0676583,-1.145057,-0.04259468,-9.864386,0,0,37.92438,1,1,1000,1000,0
13923,46703811,0,0.00060749,0.00067709,0.00060649,-0.00042584,-0.00117804,-9.817418,0,0,27.78372,1,1,1000,1000,0
275276,337744015,0,-2.294611,-0.1014557,0.09304103,-1.317834,-0.01676548,-9.775286,0,0,38.47447,1,1,999,999,0
417363,495623338,0,2.377979,0.01018585,0.04003223,-0.0533362,0.03661074,-9.805618,0,0,41.14467,1,1,999,999,4
294959,359623593,0,0.5196743,-6.80547,0.1010045,19.04009,19.40287,-20.78469,0,0,38.93346,1,1,999,999,3
283365,346703763,0,2.403555,-0.6081402,0.04838482,-0.7867434,0.00038385,-10.02156,0,0,38.66648,1,1,1000,1000,0
214335,269983630,0,-2.849967,0.6698714,-0.3796052,1.000002,1.000001,1.000002,0,0,36.82085,1,1,1000,1000,2
323787,391663272,0,0.00298775,0.00298319,-0.01727514,-0.00865604,-0.01263943,-9.817185,0,0,39.54797,1,1,1000,1000,3
100771,143503409,0,1.44372,-2.359213,0.05581287,-5.668358,-0.02114394,-8.073415,0,0,32.53171,1,1,1000,1000,1
336342,405623519,0,-0.2952285,2.937996,0.09748755,-4.552898,0.04942328,-8.716728,0,0,39.79585,1,1,999,999,0
156939,206183327,0,-0.6966864,2.571424,0.06894919,-4.929503,-0.1113577,-8.648406,0,0,34.88261,1,1,1000,1000,0
411295,488863543,0,0.4791431,-2.328941,0.04142529,-0.0188166,0.02098446,-9.891628,0,0,41.05682,1,1,1000,1000,4
236831,295023610,0,1.354717,1.945931,0.4624209,1.000002,1.000001,1.000002,0,0,37.47582,1,1,1000,1000,2
208123,263063899,0,0.6110353,2.279603,0.445294,1.000002,1.000001,1.000002,0,0,36.62999,1,1,1000,1000,2
190722,243743297,0,-1.04939,-1.763547,0.1839031,1.000002,1.000001,1.000002,0,0,36.07322,1,1,1000,1000,2
403475,480183683,0,0.6919214,2.172702,0.02924115,-0.01212724,0.02579961,-9.829904,0,0,40.94106,1,1,999,999,4
297439,362383322,0,0.00343065,0.00338818,-0.00297169,0.02113442,-0.04919233,-9.817172,0,0,38.98901,1,1,999,999,3
394018,469663726,0,2.419766,0.3648045,0.04411835,-0.09490954,-0.182666,-10.04191,0,0,40.7962,1,1,999,999,4
290652,354783863,0,-0.8310976,-0.2837152,0.4882396,-1.284468,0.5405055,-7.842919,0,0,38.83479,1,1,999,999,3
237883,296183979,0,2.927497,-0.8044986,1.404767,1.000002,1.000001,1.000002,0,0,37.50485,1,1,999,999,2
57109,94663786,0,0.8849781,-1.932923,0.05371282,-1.504575,0.06227644,-9.813517,0,0,30.3273,1,1,1000,1000,0
314644,381543988,0,0.00315456,0.00312839,-0.01307302,-0.00372831,0.00743977,-9.817375,0,0,39.36091,1,1,1000,1000,3
281743,344903650,0,0.6947067,-2.286797,0.04801301,-0.2892534,-0.02280973,-9.902744,0,0,38.62837,1,1,999,999,0
173424,224503496,0,0.8851963,2.294325,-0.09632558,-1.241702,-0.1159026,-9.993948,0,0,35.48196,1,1,999,999,0
258692,319303894,0,-1.460442,1.856857,0.04254128,-0.5343222,-0.00689396,-9.86596,0,0,38.06078,1,1,999,999,0
271275,333263308,0,-0.6332707,2.382184,0.06949227,-1.009575,-0.02378005,-9.853615,0,0,38.37629,1,1,1000,1000,0
136901,183943893,0,2.292656,1.35169,0.05524518,-5.014307,-0.06775152,-8.70488,0,0,34.10407,1,1,999,999,0
322108,389824008,0,0.00307856,0.00300002,-0.01725337,-0.04529849,-0.03330944,-9.818481,0,0,39.51442,1,1,999,999,3
392576,468063533,0,1.612215,-1.472674,0.04385504,-0.7527194,-1.663007,-9.976899,0,0,40.77372,1,1,1000,1000,4
65084,103543566,0,-1.397518,2.020624,0.06211102,-0.9579253,-0.032574,-10.05806,0,0,30.75524,1,1,1000,1000,0
114193,158584041,0,-1.792768,-1.958649,0.01139792,-4.453918,-0.277692,-8.448109,0,0,33.14295,1,1,1000,1000,1
340282,409983441,0,-1.947689,1.876958,0.05475314,-4.190765,-0.08357461,-8.883446,0,0,39.87094,1,1,999,999,0
222611,279183282,0,3.385218,1.461875,-0.4923936,1.000002,1.000001,1.000002,0,0,37.06786,1,1,999,999,2
40462,76223665,0,0.7745427,-2.173934,-0.04220141,-0.5830366,0.01543959,-9.873789,0,0,29.39712,1,1,1000,1000,0
267673,329264075,0,1.98883,-1.161477,0.06315236,-0.5860808,0.00887736,-9.958736,0,0,38.28738,1,1,999,999,0
278422,341223456,0,-1.604363,-2.270569,0.111397,-0.2533382,-0.03602108,-10.25928,0,0,38.54973,1,1,1000,1000,0
387935,462943915,0,1.209703,2.339953,0.04133817,-1.809677,-4.219387,-8.854523,0,0,40.70097,1,1,999,999,4
337760,407183728,0,2.858127,0.7238417,0.05713673,-4.897705,-0.05291018,-8.868092,0,0,39.82285,1,1,999,999,0
3848,18023621,0,0.00023636,0.00017043,5.32E-05,-0.0017871,4.99E-05,-9.817501,0,0,26.0566,1,1,1000,1000,0
84200,124863368,0,1.90572,1.806329,0.02336687,-3.88161,-0.00590088,-9.172367,0,0,31.73244,1,1,1000,1000,1
69310,108223360,0,2.370911,0.8119723,0.00672464,-0.7237515,-0.0227607,-10.12979,0,0,30.97574,1,1,1000,1000,1
411838,489463303,0,1.214806,-2.017048,0.04650568,0.02480635,-0.00170063,-9.823999,0,0,41.06469,1,1,999,999,4
29476,64023547,0,2.234533,0.7984476,0.03663358,-0.006538,0.03120831,-9.793425,0,0,28.74952,1,1,1000,1000,0
166220,216503364,0,-1.516343,1.704195,0.03023112,-0.1258902,-0.00801921,-9.603689,0,0,35.22473,1,1,1000,1000,0
220708,277063297,0,-1.895158,-2.192723,-0.4089229,1.000002,1.000001,1.000002,0,0,37.01161,1,1,999,999,2
61436,99463532,0,-1.240207,-1.610156,-0.00051135,-1.512694,0.00396934,-9.752488,0,0,30.56019,1,1,1000,1000,0
144882,192783689,0,-1.735073,1.961812,-0.01046816,-4.847036,-0.1347818,-8.568597,0,0,34.42046,1,1,999,999,0
302276,367783661,0,0.00336807,0.00336731,-0.00644922,0.01338564,0.01159165,-9.816626,0,0,39.09624,1,1,999,999,3
203545,257983432,0,1.665537,-2.373797,0.1688013,1.000002,1.000001,1.000002,0,0,36.48705,1,1,1000,1000,2
434811,516103476,0,0.00114317,0.00123772,0.00124205,-0.00029649,-0.00184471,-9.817629,0,0,41.39908,1,1,1000,1000,4
76369,116063556,0,0.01155677,2.397969,0.04522516,-0.5439248,0.01341442,-9.829397,0,0,31.33749,1,1,1000,1000,1
300575,365903580,0,0.00337226,0.00337179,-0.00500516,0.01229703,-0.00848608,-9.817919,0,0,39.05913,1,1,999,999,3
193772,247143603,0,-1.085426,-1.465981,-0.4189471,1.000002,1.000001,1.000002,0,0,36.17382,1,1,999,999,2
308422,374623424,0,0.00322269,0.00324399,-0.01297089,0.02318702,-0.01152315,-9.817684,0,0,39.22932,1,1,999,999,3
430005,510063393,0,0.00132154,0.00129572,0.00127759,-0.00141277,-0.00077961,-9.817022,0,0,41.32585,1,1,999,999,4
382164,456503992,0,2.264654,1.410925,0.04533792,-1.803424,-4.17199,-8.752657,0,0,40.60769,1,1,1000,1000,4
334998,404143278,0,-0.4760592,3.028302,-0.02155005,-3.934607,0.03821756,-9.248163,0,0,39.77012,1,1,999,999,0
404273,481063331,0,2.044205,0.8655292,0.03396656,0.00834614,0.01433414,-9.8543,0,0,40.95295,1,1,1000,1000,4
227923,285103413,0,2.190511,0.5583376,-0.3103973,1.000002,1.000001,1.000002,0,0,37.22286,1,1,1000,1000,2
428510,508183312,0,0.0012747,0.00131601,0.00137867,-7.44E-05,-0.00092014,-9.817093,0,0,41.30275,1,1,1000,1000,4
321486,389143447,0,0.00303001,0.00310034,-0.01720559,-0.02974934,-0.00178594,-9.817421,0,0,39.50198,1,1,999,999,3
386215,461023850,0,0.1086073,-2.721405,0.04580702,-1.760551,-4.099998,-8.500747,0,0,40.67337,1,1,1000,1000,4
65423,103903422,0,2.333831,-0.1364339,0.03080894,-1.373928,-0.01561835,-9.795603,0,0,30.77233,1,1,1000,1000,0
133479,180143747,0,2.210651,1.349776,0.03521129,-4.933814,-0.08512595,-8.645185,0,0,33.96518,1,1,1000,1000,0
221470,277943778,0,-2.523313,-0.3884676,0.1887653,1.000002,1.000001,1.000002,0,0,37.03501,1,1,1000,1000,2
100949,143703329,0,1.459287,-2.351954,0.05634167,-5.675543,0.00801385,-8.053055,0,0,32.54002,1,1,1000,1000,1
342183,412103426,0,0.5506027,-2.110208,0.01667362,-3.001203,0.03256879,-9.365927,0,0,39.90706,1,1,999,999,0
79158,119223958,0,0.9687625,-1.804036,-0.02430408,-1.260909,0.00549382,-9.776694,0,0,31.48065,1,1,1000,1000,1
64522,102903822,0,2.463746,-0.2487799,0.1029645,-0.3371467,-0.00973773,-10.13319,0,0,30.72482,1,1,1000,1000,0
416822,495023578,0,2.207564,-0.7390563,0.04598051,0.04339095,0.0051544,-9.86877,0,0,41.13696,1,1,999,999,4
20443,53983398,0,1.990132,-1.592819,0.02786305,0.00465048,0.00939784,-9.789145,0,0,28.19647,1,1,1000,1000,0
313744,380543555,0,0.00320433,0.00316147,-0.01305217,-0.01148901,-0.0110394,-9.817293,0,0,39.34208,1,1,999,999,3
438163,520183510,0,0.00113267,0.00108239,0.00118811,-0.00169769,-0.00154083,-9.817221,0,0,41.44772,1,1,999,999,4
409797,487223366,0,0.2666963,2.25813,0.03943577,-0.01584369,0.05698421,-9.822424,0,0,41.0352,1,1,999,999,4
93673,135543261,0,3.020957,1.028188,0.06074202,-6.274751,0.5088444,-8.09355,0,0,32.19645,1,1,1000,1000,1
348929,419583766,0,-0.8356757,1.857201,0.04225419,-0.2485776,0.00771852,-9.562904,0,0,40.03247,1,1,999,999,0
236989,295183546,0,2.848375,-1.657741,0.8382807,1.000002,1.000001,1.000002,0,0,37.47983,1,1,1000,1000,2
59033,96823755,0,-1.150223,1.967433,0.04199538,-0.3126068,0.03219916,-9.778965,0,0,30.43256,1,1,1000,1000,0
264016,325224025,0,1.686993,1.547832,0.03866493,-0.1914237,-0.00044095,-9.858152,0,0,38.19637,1,1,1000,1000,0
310641,377063281,0,0.00325864,0.00322051,-0.01299524,0.05151614,-0.01591874,-9.817583,0,0,39.27607,1,1,999,999,3
391495,466864013,0,0.2270837,-2.222664,0.03387313,-1.394758,-3.274971,-9.272671,0,0,40.75678,1,1,1000,1000,4
344166,414303379,0,2.326251,0.02255514,0.03967616,-0.6091483,0.02834078,-9.958523,0,0,39.94427,1,1,999,999,0
384236,458823897,0,-2.624273,-0.5608732,0.04907331,-1.672498,-4.176787,-8.805304,0,0,40.64153,1,1,1000,1000,4
25967,60143433,0,-1.676961,1.356111,0.03438233,-0.03865813,0.00965978,-8.830409,0,0,28.53798,1,1,1000,1000,0
213714,269303902,0,-2.182722,-3.194941,-0.1913317,1.000002,1.000001,1.000002,0,0,36.80228,1,1,999,999,2
82800,123303992,0,-2.643794,-0.7084252,0.01729428,-1.832501,-0.1250349,-10.04858,0,0,31.66327,1,1,1000,1000,1
430813,511103810,0,0.00129935,0.00124921,0.00129091,0.00025174,-0.00138289,-9.816669,0,0,41.33856,1,1,1000,1000,4
13189,29663963,0,0.0003717,0.00042043,0.00041404,-0.00083414,-0.0006634,-9.817304,0,0,26.77753,1,1,999,999,0
121328,166623324,0,2.63463,0.2821352,0.05499043,-4.895833,-0.3739225,-8.704017,0,0,33.4565,1,1,1000,1000,1
30636,65303868,0,1.507239,-1.830803,0.04942321,0.02034163,0.04576302,-9.811584,0,0,28.81871,1,1,1000,1000,0
54143,91383432,0,2.177885,0.9502357,0.01627653,-0.44565,-0.02697264,-9.869687,0,0,30.16599,1,1,1000,1000,0
258791,319423846,0,-2.17053,-1.017245,0.0295656,-0.4833481,-0.03214824,-9.895866,0,0,38.06356,1,1,999,999,0
377858,451743397,0,2.633943,0.1071377,0.05077136,-1.760855,-3.95716,-8.781627,0,0,40.53744,1,1,1000,1000,4
364589,436983470,0,2.29695,-0.3567631,0.06074585,-1.124822,-0.00994154,-9.869469,0,0,40.31239,1,1,1000,1000,0
341261,411063842,0,-0.7095037,2.919601,0.1351074,-3.593591,-0.03590183,-9.042788,0,0,39.88937,1,1,1000,1000,0
357563,429184091,0,0.2200951,2.296503,0.05636635,-0.2503927,0.0130802,-9.864624,0,0,40.18892,1,1,999,999,0
133181,179783891,0,-2.655063,-0.145419,0.04148732,-4.768281,-0.06965916,-8.38759,0,0,33.95193,1,1,999,999,0
229263,286583654,0,0.4974187,-2.464582,0.1802445,1.000002,1.000001,1.000002,0,0,37.26113,1,1,999,999,2
274556,336943502,0,-2.344061,0.8729572,0.04367502,-0.9114352,-0.05466932,-10.38671,0,0,38.45705,1,1,999,999,0
314242,381063347,0,0.00317421,0.00312396,-0.01308649,0.0140629,0.00441397,-9.817255,0,0,39.35188,1,1,1000,1000,3
176642,228063738,0,-0.6528062,-2.532854,0.01538827,-1.362594,-0.06533445,-9.996948,0,0,35.59424,1,1,1000,1000,0
264818,326103673,0,2.200894,-0.4467185,-0.05849148,-0.14901,-0.02390577,-9.521762,0,0,38.2163,1,1,999,999,0
99246,141783264,0,-2.257775,-1.667672,0.04120661,-5.534631,0.08162564,-7.583565,0,0,32.46001,1,1,1000,1000,1
